time,accX,accY,accZ,gyroX,gyroY,gyroZ,magZ,rot1,rot2,rot3,rot4,rot5,rot6,rot7,rot8,rot9,label
872326248282388,0.5455230314195567,0.34766172440434207,-0.8769898073881788,0.007562381094118664,0.39819316855719633,0.390391471804849,49.191066565087205,0.5584097314721674,-0.9984724570638361,-0.33293049088631577,0.225526235934139,0.06983568783604777,0.01972140942885292,-0.10865141218212115,-0.0334226891176308,0.685047177424831,normal road
872329720501547,0.9815356011085334,0.22348714657975566,0.9129721779896469,0.18834936481512254,0.385352375118571,0.17561552199995523,40.13743682462532,0.6242362042425385,0.15966233302001576,-0.7786265386137459,-0.2981789086518227,-0.30215575718170307,-0.3436254681469122,0.993739746406793,0.8122620521753863,0.3872423513613992,normal road
872327549232107,0.026509571034043722,-0.6768885534044968,0.009855607161431523,-0.11479133067321357,0.3773262647379819,-0.10123268867295776,44.6459749465319,-0.19039120675292698,-0.14249687652789422,-0.28584742801325125,-0.31809992910078244,-0.31675757721392506,0.6927035064391169,-0.2848701901453845,-0.44601729534541934,-0.357598401169553,normal road
872327285016280,-0.6986863324727413,-0.753640760608153,-0.8533567099764996,0.4100221524328962,0.35337221044979694,0.0757348498687751,46.673514622434325,0.5494594818735432,0.8216761317412231,-0.42609649612054956,-0.6510126821763782,-0.5628464232856989,-0.14866104532168278,0.11082397550672729,0.8313731940015145,-0.08784040159091999,normal road
872326023519763,-0.5369397465406947,-0.4450541610427128,0.927961608143341,0.36028079270634106,0.49550919169554275,0.4997044107905536,48.403549107906755,0.7240995097451979,-0.8771304613260564,-0.7451597051393097,-0.6915857111186934,0.1594819825169287,-0.6040160583007506,0.5768924774897455,-0.31364733163109193,0.25444768638614534,normal road
872327174721413,0.47690095600210625,0.033837815432565144,0.7485685810018397,0.11246727866803752,-0.08553654738084238,0.050490249113656294,44.54766045157816,0.9415590031038858,-0.32711395096890583,0.12161303426551595,0.5388516654724496,0.3808079329611658,0.7881909465083818,-0.021655795855024307,0.2774447384518657,-0.7426086105938858,normal road
872326154198420,-0.7186875245558224,-0.026781942685176974,0.21417149958368698,-0.10381779383240952,0.1727044352715984,-0.24561299606835174,42.423793168542474,0.3706004396784415,-0.40704866940597184,-0.22488137415656184,0.023295515118667787,-0.8778055524340895,0.3158617166273421,-0.63620581783623,-0.8723289232560147,-0.7861236483636533,normal road
872329759788166,-0.10828251035862024,0.2084911852033544,0.4464719627826814,0.4338236256902501,-0.48609024119263466,-0.4153553000796627,43.731535788529555,0.5048595157291573,0.07091576261056276,-0.8823175433311907,-0.3280920023932614,-0.3901832986457685,0.04179624627050926,-0.8299466143045171,0.1895923245139619,-0.020234854419858728,normal road
872325633344231,0.13144842576530125,-0.4330616076631695,-0.13926209718198712,0.22009984680460704,0.09154605806555915,-0.08968474312420116,43.94275718476529,-0.42057191009869843,0.02757697387341418,0.2733203660503596,0.09687828735210702,-0.6294796199780872,-0.6750137124142355,-0.19964989784228226,-0.005564484608530762,-0.30743893748584994,normal road
872326814629725,0.6985632247828528,-0.8191912625965021,0.7983842618456467,0.10994953629455217,0.15858848683788473,0.1631061592023736,45.75484020727699,-0.44143916499267855,-0.9617918384526076,-0.19413937813855786,0.18119101491563128,-0.9831625389079293,-0.43833306449597664,-0.07535286984353196,-0.9369244424072971,0.9113954977243406,normal road
872327192813157,-0.4924320475454811,-0.25581752408916425,-0.2367730070852765,0.1019001501254998,-0.244438803531409,-0.08296640034035785,42.8625635265269,0.898791442055614,-0.38379499070306133,0.2724313002909915,-0.2604604051627888,-0.9202178848054077,-0.9675873791546912,-0.09470348891408209,-0.2215762840920421,-0.6788883087951627,normal road
872327594077948,-0.1067484324175989,0.6324749371799878,0.8573068854290482,-0.25761357351163583,0.10067530151263326,0.4109507629007436,44.780277446759186,0.10962826091448385,0.4329239464183614,-0.527241680080264,-0.7922286222536077,0.9231503512215993,0.4056852286300947,-0.48543617424875896,0.060586348229046516,0.20900528267861795,normal road
872329902417635,0.6790802008863115,-0.644045485121413,-0.3815290296982612,0.02349235044787923,-0.05257188146970204,-0.17521208962053048,49.91757128556927,-0.3105043019507847,0.40668693782621523,-0.0834619535674852,-0.7331499419946543,0.9784888331680044,-0.5888947136495477,-0.22339404802438478,0.36594118337274795,0.9657411275624534,normal road
872329512309127,7.376764871584838,9.028782673568449,5.142181734733163,9.31890164456086,6.80586172599771,9.579934937681363,46.059286402660994,-0.6253534298666408,0.8263237654583966,-0.6431531258461611,-0.04487772418520741,-0.9559630506065699,-0.8590275527472608,-0.6220086483987515,-0.8885946779194895,0.4470504648345688,pothole
872327492557890,0.7845317740039441,-0.5394507363340388,0.5955035927954904,0.0922248162184589,0.3578552225780749,0.4953934416700789,47.524608235606436,0.28788328124824347,-0.5647149218696819,0.4493298992626784,-0.9595359079549945,-0.6134250242147514,-0.0512071583325282,-0.549089552870262,-0.18173893711279576,-0.6303494100373066,normal road
872328823252668,0.7670292954805844,-0.9237827152207494,-0.8224830855553742,0.032833457863749915,0.34656935617929396,0.1729026445738897,44.98357310192474,0.48098628483130934,-0.14072153370773566,-0.07690435867328804,0.24647539745133829,-0.8075108752829963,-0.12702443377129158,0.9481015130738171,0.8129659445569444,0.3375514375282287,normal road
872329216558944,0.9423545123349115,-0.9967529377748592,0.7160343390043074,-0.39426938905884845,-0.20038163399274478,0.08082642738472501,45.99009253915666,0.8048755765995299,-0.5700614614237307,0.17801041146426866,-0.4495222967736112,0.018311237302387706,0.5767073808378735,0.3031967098770505,-0.2012393576879523,-0.22395231661295423,normal road
872325039433400,5.0272425615308265,9.036791090068563,9.23049645254412,8.054591175413542,6.495077990165256,8.690307961950964,45.74519568018391,-0.11061055648290097,0.7703075514911679,-0.4694624247007726,-0.47518796119496787,-0.07674704607072536,0.8642897998124786,-0.18226733044330934,0.5820821632346549,-0.6408809748020716,pothole
872325536383647,9.34189190563023,7.103120205229152,4.4552133505255025,5.635833395696749,9.499035383712522,9.822341628988768,41.041869633798456,-0.6904428207331554,-0.7105171725988322,0.6145950717029152,0.8533527810935477,0.2619077055523231,-0.03662311490074388,0.8141398483558384,0.7147749146269642,0.9864143746206664,pothole
872326038859447,-0.8906411402776455,-0.17617780001196937,0.15655815561752662,0.07730102561090557,0.45364883919906673,-0.4977808820352174,46.83589006420291,-0.49455751003674364,0.7799689604191604,-0.3169066635848785,-0.29969914326987435,-0.47740761336719717,-0.7503510203603327,-0.22736726691053177,0.7514049816751434,0.017996712589616326,normal road
872326258745801,0.1951190714760751,-0.566921534787888,-0.23536756494885802,0.3006049201730021,-0.18652408131203857,0.490537438293007,44.676539580987736,0.36629110379671936,0.9243648928553554,0.4670042073530034,0.7330674335506875,0.8500466137130742,-0.41343426687963736,0.2930449712017358,0.5355444278781334,-0.25128238141656256,normal road
872326918263627,0.5758455632596684,0.81431039107165,-0.7800242404509654,0.0471711447381592,0.4087662148424034,-0.383356330724942,42.0108553202251,-0.9108209201777431,0.13814484997909737,0.6160282611187007,0.4152339116848096,0.7298336241902863,-0.9186957478798279,-0.6601075261713578,-0.055687854088767974,0.29227477089279974,normal road
872328787634894,0.15745990154197376,0.4413511130038117,0.8309374326527939,0.19160374638772115,-0.015011015910011638,-0.2100269425220196,47.41944648878034,-0.3292372372168082,0.3014304262522003,0.6780299434702839,-0.3024910765639288,-0.8554448346656538,0.41149287837269566,0.27215621107845434,0.7355397283543179,-0.4669889476942486,normal road
872327679584477,0.07611284094421733,0.04204072188366559,-0.3409848085363001,0.1025936242531934,-0.17783073622300682,-0.20053878751592136,48.92079603808457,-0.031609708801897396,0.3842727022955643,0.9896123504795875,0.3974219133193444,-0.6598923074388816,-0.06077116513273895,-0.26336260935304634,-0.4405706918938932,0.577078758746995,normal road
872329430294843,0.1105341783001268,0.8730722802151527,0.5598526598193785,0.4537539188423787,-0.2693614513079219,0.3741122539028735,48.665033336799496,0.29270960376503874,-0.42944873476732304,-0.8286556688700888,-0.010803559755206082,-0.5400609461999171,0.6690394837804976,-0.3227227894214988,0.7499541336948059,0.19649538668953803,normal road
872325694604182,9.90024198517029,10.28211335192724,10.899334376491788,8.771016441727415,5.051868572652596,6.468420893073711,41.74762380061212,0.7141188084906909,0.6758068635674765,0.2682555724349398,-0.07093553630365346,-0.6278114156625836,0.589189989176087,0.3558345356023924,-0.5586469863412311,0.5077468922894444,pothole
872327449316023,-0.0008752982713544633,-0.3376205335889837,-0.443662325898168,-0.0884736505605127,-0.3006988659664953,-0.23688410693319617,40.02998675385136,0.6603030052728629,-0.7890546688417952,0.7045990459931573,0.5374564388542964,0.28272585895250724,0.9304192653654269,-0.2832299971802177,0.68999920361969,0.3700984543822923,normal road
872327280539800,-0.975987921851551,-0.35168542807646297,0.41798518887348113,0.40992693071126196,0.28002245836874073,-0.31237878968650645,48.19843972470442,-0.7841659038306976,-0.7319518047552485,-0.5181679080884494,-0.7114926462883062,0.5639847330277139,0.9732001778284023,0.7663233551755366,-0.6699721477172182,0.808655341843513,normal road
872328573124471,-0.4419479224074181,0.489288898160708,-0.6664259089978983,-0.4525794357994416,0.36445101566378646,-0.28868764363615484,44.10774342081427,-0.2201383845623306,-0.4229356998703975,0.7950048897332291,-0.8431888426504337,0.32202860078057305,0.8910532617056199,-0.15273401225762417,0.7776802557630944,0.10815383524101407,normal road
872328860929420,-0.7016859822903516,0.5453384496346116,-0.1626796063764,-0.3245750477926894,0.384329427913468,0.48711826622882004,49.6591617647769,0.7143253214242935,0.20316944817275573,0.015227588232566092,-0.35185236146775223,-0.13830420191632675,-0.32959647310390183,-0.3367070258063636,0.4350387071704829,-0.6080979422869712,normal road
872329877825427,0.6053771387071785,-0.2620815197162645,-0.22980589912262395,-0.22977782291645765,0.4585013705714065,-0.24543721320331002,40.34450370175659,-0.6497559678259475,0.065525790885685,0.4993769155192429,-0.025422359802871775,0.023626198513699626,0.21343038353114507,-0.6066182494134662,0.30835330454710674,-0.6014039421307817,normal road
872325554431504,0.9894958449376241,0.8074688456822743,0.022539351826756704,0.33760529920042215,0.03639902398206962,0.3991134600746953,46.090939321442235,-0.2388068390809397,-0.20916990587227402,0.9632282573615116,0.5586909885630482,-0.11491886171042842,0.6117753448346956,-0.20926907592801403,0.7483817098759808,0.19180326691622218,normal road
872326382119016,-0.01986807181032879,-0.43239750027321766,-0.01846308438117039,0.3881814609144394,0.2511460802931713,-0.4238249503220064,45.29290723648251,0.37735502213676275,0.8033128394523812,0.7087181226841506,-0.026268953475732326,-0.2017768230334056,0.7957388063077906,-0.5352781258542632,0.25771939332849825,-0.48682126311527885,normal road
872325113546309,0.9473620307132442,-0.5289352130860512,0.9436067431797726,0.13872028676201342,0.45299663458993256,0.444579484541624,41.491275113267754,0.45769747172613484,0.7742720821696896,-0.5676048298618621,-0.24767877716951436,0.11867609318728833,-0.7286505416759024,-0.8752050613370663,0.9587225647920037,-0.9047739379119777,normal road
872328654953955,-0.4535486197351517,0.19835949754428306,-0.8413849893790089,-0.15924347845954656,-0.46406418495382173,0.311576851121232,43.03847924051607,0.22905213061816476,0.15103925687274455,0.2930146782428418,0.8168327008294167,0.5548689785910628,0.5320833994736927,0.30661397083316566,0.6249033324445072,-0.36836460747825517,normal road
872327398354506,0.9384620610633221,0.05700177006280538,0.3077587984200516,-0.11651554749606796,0.3718424490234762,-0.09854465357964692,43.41326903460565,0.19702404076276414,0.12933303417782938,0.5604397174784881,0.4043533279301843,-0.46748169862937416,0.027207081356908303,-0.6162180928444598,-0.12781538734850995,-0.19533016007478232,normal road
872325470651785,0.5044286684269366,-0.6225950954129422,0.3486724625672124,-0.004229319242287866,0.028533326680722393,-0.34299335956004906,45.857381752878815,0.4467466738294583,-0.19726641840981274,-0.38969875923751207,0.15822814597443235,-0.18444268570799283,0.35477244557901155,-0.16025844675651402,0.2589681271686477,-0.8004301294755758,normal road
872326371710706,8.700438919523696,9.271166771708184,5.778155486109703,8.376956713259911,9.271821544238746,8.676471313891179,45.03429998737698,-0.8603093859124291,-0.2815125143052364,-0.6552197769648505,0.8923136228518034,0.8481206208245806,0.6577912249889244,0.13994916673798685,0.34270804721506476,-0.2988185331904776,pothole
872327886932245,0.5143779475564854,0.28998813532971757,0.886432190456411,0.10254969165571048,-0.14055476463695926,-0.20835424136383496,40.48085412488277,0.5810105435333079,-0.36041797892009875,-0.9134663906693414,-0.18899675102994973,-0.8091256485179201,0.19837976007627223,0.5325080091893737,-0.8122812817864478,-0.5477560289321315,normal road
872328376902796,-0.12370411871101306,0.5986329335623515,-0.2366002454143945,-0.40083591248709205,-0.18549380215915445,-0.11737585935754635,47.664186682520295,-0.13301826959994,0.9837445109467107,0.1752973941318534,0.41318107246454794,-0.8576135339997906,0.9821677375762012,-0.8632333606933298,0.07757642893856542,0.2461169428101586,normal road
872326762313333,-0.6689993666967842,0.029189477802753938,0.9367714222034831,0.32050708047798926,0.13883773282159106,0.495694167445637,48.60500078162454,0.039569762181158374,0.32721595753423793,-0.9545998751130282,-0.5988428126468919,0.02706387169388358,-0.04057926395774869,0.37616697193282467,0.5811253517151864,-0.2507733220961499,normal road
872329949134711,9.575502047553918,8.281428597066204,5.0940856209542975,8.08129101200321,8.034577525127695,9.111239597665524,42.10159960775074,0.5209761907811203,-0.4729954689157865,-0.845011405787423,0.26332426287855726,-0.9846495919675577,0.8048788699097016,-0.5125127579425979,-0.9204476562939137,0.05547365510994995,pothole
872325317556875,0.5615777388929648,-0.564589297972184,-0.1614942466935836,0.4252681602165662,0.33784424875167585,0.10030330161963152,40.362776420528,0.8003194766948303,-0.8287551812438432,-0.8771114213475577,-0.8300473042720433,-0.8867186372857427,0.8556963679206908,-0.3893005820416724,0.20917474433184302,-0.841693597768624,normal road
872326383964210,0.007281690572621624,0.6226528031414018,-0.22694284876628723,-0.4615898777965023,-0.4097301668902813,0.17834434064711846,40.06773499506601,0.387881477558333,0.9014441055814757,0.6503827012797305,-0.6679855179529024,-0.20191769811271554,-0.18819604002978552,-0.5338007483299023,0.9443065239345689,-0.28569205982469303,normal road
872329973052072,0.10483848355007441,-0.38718312288523093,-0.3808247649711074,-0.08977512054587089,0.2242665968949098,-0.10338686018153431,47.43095137058818,0.1853841052345917,-0.32295005964944146,-0.41084439677903606,0.4097130653902681,-0.4737184072180738,0.10119133951999615,0.1651395426598845,-0.40854460432082984,0.512450414495716,normal road
872328676795998,-0.05883981003589711,-0.7970480979013319,-0.825002297160188,0.38200773401136745,0.03392632226116732,0.30368977577579914,42.68983199415711,0.7417773003824273,0.387881525191782,-0.6214419894658061,-0.8503943270236187,-0.5634315396951222,0.22637093373181805,0.5165380734467615,0.10321853926224067,-0.21422637293811042,normal road
872329417821957,-0.7289392232482148,0.5226093797902005,-0.1474812127391869,0.4682386178122131,0.19611402808145828,-0.4115023450973011,44.78082667264342,-0.7542030221955986,0.22395557227248242,-0.17427572557235482,0.6303370754045874,0.4613199028837487,0.8162305940794428,-0.1699665639639678,0.5483296092477832,-0.09320608417093768,normal road
872325074015194,4.4456986810125665,6.692764342450043,6.241155871644615,8.373593957659486,6.1580734903743926,5.511667591823501,45.15750212976865,0.5177679169791296,-0.3985870386607062,0.5858802059399033,-0.30779681094116573,-0.37770530788491663,-0.5464803524723354,0.46280745797727985,0.6381979056965092,0.029528482453193172,pothole
872327224194804,0.3202777258060623,0.4958385060761925,-0.08861878891118469,-0.22117975986053884,0.43562799004346875,0.48088046523791694,48.59974527631702,0.09506290272311801,-0.45869011800882586,0.2748293217083,-0.0815102602586879,-0.5077584585333061,0.2557799456888781,0.18288668918079853,-0.8781090215774998,0.7046212690751603,normal road
872326382568563,-0.20493046071897436,0.6116509759168924,0.9075071389919296,-0.07908345272923079,-0.4524758624317291,-0.06819101288327811,46.12008666467153,-0.3313043934542097,0.9926848352573956,0.5249533259290051,-0.6544771262697651,0.33795893897149965,-0.7681617435720716,0.9518902960147386,-0.6033183756824285,0.7742298046211675,normal road
872325739703830,0.9042265609433915,0.4591955012313549,0.725355165703353,-0.37633561897647416,-0.25093132125563633,0.2633361377877512,41.58780326385824,0.40275495159313857,0.5549954689099934,0.7098168641866496,-0.8241413430692182,0.3701020780819786,0.5575781873112446,-0.6823553210293078,-0.5451725779928231,0.3446069625666828,normal road
872325499991776,7.6060450328407665,9.36512290987859,9.672882687969794,8.158328146844427,7.485812666035071,6.235583597143746,42.44361714598257,-0.30084663505393605,-0.36427348042136143,0.33311139237694243,-0.8772928165964833,0.6057217254902141,0.9570527033258918,-0.33167103570147183,0.7253410011689139,-0.6280828008212511,pothole
872328804120549,0.4659504853533176,0.50147077854543,0.3330320951199419,0.28165754386013353,-0.02247302077390434,-0.2597653790242552,47.55409185017378,0.44620819335347983,-0.33218767190577947,-0.8000988098580071,0.7064655257963828,0.33115400586450283,-0.075434864110558,-0.12898870510390248,-0.1587099676999002,0.8904958670257801,normal road
872327950989567,0.49751946519247703,-0.39595534012084377,0.6328356229208145,-0.4791361197570545,-0.07017200878000918,-0.33626116255384086,43.47748096044124,0.3697048710417796,-0.6742394334899882,-0.6452951407005794,-0.9082713409520342,0.08869914049226146,-0.9529453633487506,-0.09197439488714854,0.8787977004655758,-0.835689473459315,normal road
872328494608367,0.049117673226460434,0.05791642695725807,-0.7804276922102522,-0.11277809187184173,0.20892553281724324,0.351030203711316,43.55475485568417,-0.3099157361883702,-0.5532190728437298,-0.03219262664712885,0.2858478528593471,-0.2032153707204556,0.2933315828372447,-0.7648747630478279,-0.26037923732537194,0.6350305441712714,normal road
872328696218448,0.4972329539193847,0.9970531899403638,-0.008331048687059361,-0.43905376723376077,-0.4501115440664033,-0.40857688084009125,42.79872907320155,0.40497609938603074,-0.268480422364918,-0.4268853633911518,0.9431789550073924,-0.20313948606207322,0.7786106208189041,0.17992544834174473,0.4668482195904211,0.4168885302996457,normal road
872326826324731,-0.6504684663065701,-0.6233330001475184,0.40691209447004284,0.08039683760227934,-0.3636491315461239,0.4391070013438715,48.25327974037811,-0.24054844658546615,-0.427174484531877,0.3154236255351719,-0.20665613528380833,0.4362326872066473,0.06592707239059559,0.2812635115846853,-0.43445662931619156,-0.9083522690674577,normal road
872326252007642,0.8114877855526006,-0.523672782579083,-0.13043430129361178,0.47342666784729504,0.3316411549966741,-0.07406081073782889,40.954145506253745,-0.49077288048742806,-0.4039778322954639,0.27005129268434525,-0.12419243150279646,-0.5818554746055113,0.1500920883085597,-0.6508597865486354,-0.7565069472729564,-0.6800229387574763,normal road
872325007609088,0.9724936059786451,0.39648315345329554,-0.5834834594581448,0.21765080016992366,-0.22349983663757622,0.07385843499250644,48.99685177739193,0.9793709455371318,0.4948318930526894,-0.4525105273228385,-0.9559480761678023,-0.20355110302868806,-0.3618993849891998,-0.48234830331615797,-0.35219522482500754,-0.006919856458723617,normal road
872328861658552,-0.8322682362587026,0.8819915436058385,0.6754579294819689,0.36416095680451643,-0.1664142952007377,-0.12529791076003904,44.57584185838029,0.8999488017073223,-0.26114885516271724,0.2764117133642505,-0.20256030492992472,-0.4840106962402235,-0.4230374380503623,0.9869886556552943,-0.9792810336860203,0.08687295001611695,normal road
872326020469770,-0.3799343075544175,-0.15453910673404492,0.7530677187172603,0.4539355659149663,-0.42492702741849064,-0.45807499701906984,40.018337715855466,0.07538329044833003,-0.20325670453608669,0.10332077306513732,0.2220407733358245,0.20933738962763493,-0.8758780037594025,-0.6994502593765002,-0.08710878434629654,0.6358509357413027,normal road
872326553623700,-0.40017939283045156,-0.4977448086982541,-0.6116929498984185,-0.0558342500337059,0.2261431407129494,0.12040618595602659,42.359053871881564,0.9453923672009013,-0.7282967849070994,0.3096596204675883,-0.807550460527473,0.1299955823603518,-0.2843792914698233,-0.5974136763456117,0.5599987407547096,0.6340605513878634,normal road
872328185436340,0.04636093947631026,-0.25137504809490707,0.2012514851423428,0.48112968798845024,-0.39433072224597165,0.3277651871059969,49.13935468353465,0.49489632743990297,-0.09216656456965588,0.8532751426583185,0.15791185534382568,-0.9852337673694391,-0.11704960705601963,0.5091862066234065,-0.6229300991950271,0.5139850853096006,normal road
872325661521469,0.29579517443544967,-0.40973014378678085,-0.6482016684101402,0.16574018710513594,0.03976043845330357,-0.36166330273880565,40.15477875368409,-0.10096870398201774,-0.28632713906405227,-0.7551050793620564,-0.36651401805962114,0.6455766983196112,0.8455240500174865,0.08139137641666405,0.8348642508334063,0.6672402977990373,normal road
872328251367053,-0.4430620254067814,0.8252682998620804,-0.016539399307475167,-0.09559017391966451,0.04430205378290175,0.25669550845987177,46.436495284569666,0.6272037752537265,-0.47014152146945687,0.7219907087138742,-0.6589869329983953,0.18434606343423487,-0.7256174209395223,-0.7801652520396567,-0.2676922098887522,0.9154183950998027,normal road
872329561929313,-0.01546062608364207,0.9191590876176614,0.2490585343616356,0.1321963473424611,0.3090229678569296,0.47362955334350687,49.957903967261046,0.8186142190235011,-0.5562629668575136,0.2933543841802715,0.40948800938976104,0.9663847499798157,0.8668785451116763,-0.14275748410672917,-0.6440949421377216,0.40271543949586874,normal road
872329156503154,-0.20192379471270705,0.0945237524564333,0.20438202531289162,-0.38504489855642043,-0.15641999350651847,0.4578877107288415,47.324187330750476,-0.1251528122286485,0.792609188448026,-0.9531879957246732,-0.8966141501077245,0.17925493879510124,0.13555039886660913,0.9115184813593491,-0.639485765047147,0.4744693528138848,normal road
872329685671437,9.737687039780186,5.164170070084219,8.834447770035766,8.361233738358731,7.218585566296099,6.036793115230307,48.136578982317616,-0.2586164153686177,0.9974310964361215,0.1938624792261583,0.2496029342073396,0.13886739235051326,0.9851232665899194,0.5988363992084227,-0.294164259107331,0.8625928810187531,pothole
872326974646791,-0.1963902929292929,0.09962350852923496,0.07649259588338886,0.09629027397183043,-0.3045105052201289,0.2853357945038568,43.93529163206988,0.5519844114538552,-0.9897943456061424,0.02984807332580175,0.06210416649574002,0.3001645825258159,0.6880387493222677,0.7188673232069036,-0.16458190965975672,0.7254477885894985,normal road
872325173418430,0.26500996849574565,0.9145620506248138,0.1039510427831083,-0.18529077077089084,-0.1783495762287597,-0.10013557884137114,40.607402347855626,-0.557541487374726,-0.20154509495581419,-0.25101819801587255,0.21577171972005593,-0.4774624935552627,-0.5331146017153459,0.36386083180820505,-0.1285677581454021,0.8273347406870715,normal road
872325312328166,-0.28832624712075083,0.5341839415748901,-0.6899172444944013,-0.4939407098744385,0.06417677466456684,-0.13149888870406645,41.476766028801066,-0.4116322519491187,-0.9393034552656434,0.9938798936356805,-0.4989028682740033,-0.6794782565472539,0.5512657155113758,0.4412513604365895,-0.434027596565995,0.2798105974506149,normal road
872327221812235,0.13979744579447329,-0.8889039074495182,0.811550749826589,0.44333453638698206,0.18348613408861503,-0.1622060250578663,46.658990953950465,0.019654379626107055,-0.8488797021334211,0.49813504234196504,-0.6315346254418253,0.7569047668496272,0.8422675544999443,-0.644749272778693,0.8492597644397608,0.877289837756617,normal road
872327582402861,0.9412272547164149,-0.5995752403698495,0.3571699758079441,-0.03264697403830741,0.4457967894873005,-0.39683507442912425,46.43995972977629,-0.42733814747423615,0.7895831973703773,-0.7247789526977,0.29435215042840146,-0.9954166767670316,-0.3268473204868221,-0.7338871857679108,-0.5866804848829927,0.05401824246933651,normal road
872325466371237,0.7084955221623657,0.702641012273171,0.5024453870439758,-0.08142356098176862,0.4711789196640285,0.42671325246310443,40.61068498056164,0.6199550783420185,0.6325640419335974,0.4698328911938121,0.5262509686831573,0.7376494321468097,0.6628470953252248,0.6696266055723068,-0.5297331716949791,0.1053621621503964,normal road
872328183853860,-0.8117480890370674,-0.1287879162660821,-0.328529917087256,0.22446912511688766,0.3950777622398748,-0.49673632569825377,47.34883779953367,0.16970313422939798,-0.5334884332743519,-0.5034691969246146,-0.7725977141745797,-0.02645312210890549,-0.13486722171063037,-0.8673637973304775,-0.2613425814558168,0.3197508600475152,normal road
872328884530684,-0.7672567065684579,-0.2623592264359105,-0.44879356957529093,-0.3036585616295008,-0.3320988892911052,-0.040969296444852144,49.16943579755214,0.48643742505289644,0.2097267532414655,0.07335853738127085,-0.8355622546269299,-0.0119692756335541,0.4657369573362844,0.4072631547554868,-0.40149024922254406,0.505509322764079,normal road
872329807699096,-0.5460681721575802,0.5109828769490414,-0.11788691650854766,-0.12197928509555822,0.19733440837590854,0.38935217867859584,41.98310510121103,-0.8789496523759477,-0.527009421612797,-0.7989501912042598,0.04554040134180615,0.3808292279850112,0.008917580405516823,-0.8516838945454188,0.007869642358269147,-0.6709428413203775,normal road
872325167371390,0.494584031347741,0.9552361729140582,-0.9830678632752703,0.3982597863469435,0.1520439697835655,-0.40105521365643837,44.82337064316023,0.2376016012097082,-0.2636905035561783,0.32158702585858556,-0.6357778072433278,-0.1963126199965135,-0.3098106099960387,-0.7369155652017099,0.5497576182262596,-0.3190630136021795,normal road
872326204579066,0.7246818252761003,-0.44368661247610675,0.9635394792836833,0.08771273175605343,-0.4547224762847982,0.4602807570669112,41.26441952223973,-0.24624738585073325,0.7406953016837581,0.09738806793863786,-0.918725919814136,-0.7409687978067683,-0.41282169455911966,0.2770746196380922,-0.8246815390235509,-0.46923294911538393,normal road
872325885011732,-0.8867473595190576,0.46807094376896186,-0.46969724753184705,0.4265159524737535,0.2654391668236963,-0.2971825808563884,44.95799456346778,0.30720972825892234,-0.35435264051133575,-0.2066904060128616,0.6730669570472154,-0.9246623527580138,-0.14071204919044633,-0.1648013438226168,0.49782867660160113,0.6716286632389101,normal road
872327816644832,0.38383787931399493,0.24068542092471512,0.5794838474387891,-0.29564973342350076,-0.3924598135383305,-0.13678789842521044,49.008794473361334,-0.7254882782313943,-0.3047660850192162,0.539786802064276,0.2615810821454896,0.19339380316084376,-0.5422284166775793,0.6704800469258012,-0.624268472332751,-0.3394995058942809,normal road
872326791407986,-0.8863287175604644,-0.012697611392866293,0.7076278201181394,-0.29097618248367485,-0.12233035919799207,-0.04881781750461134,46.95622737566472,-0.09317191341257036,0.8229748203989724,-0.11032315154746275,0.09296624111008933,0.926258142940731,0.11698725989928538,0.3284318545315199,0.9216467244649096,-0.8105052802242405,normal road
872326748972970,0.6081711546981874,-0.3327366905390754,0.5163114684176036,0.21955028334161186,-0.17000154770003562,-0.29134787011571694,49.081024385890615,-0.6756136620693425,-0.5632909759013558,-0.7435181155249997,-0.6513170360016618,-0.284291915294018,0.3967445191453125,0.2514632257733449,-0.2078291601966824,0.31463936947335736,normal road
872325252933759,0.3090414797823433,0.34324892285565256,-0.5500590313692344,0.19744713112714696,0.14576563683119714,0.13433175237184936,47.95726795870025,0.34313881504759935,0.8865202659786375,0.3895861050864433,-0.1317378719756943,-0.8415459462603452,0.3561474808253007,0.042676143313574944,-0.8737849542422447,-0.578917023935567,normal road
872325050005884,-0.6685637704848555,0.8230152507170145,-0.07181580617405126,-0.11557579444094879,0.19080762717124622,0.12155110979121264,49.2437588859912,-0.6239481007839993,0.5063248939458398,-0.6401248449451533,-0.8636957273627248,-0.5759894405454391,-0.3312647926203225,-0.13122834923851756,-0.13584638465299848,-0.20912910411365515,normal road
872329560264036,0.9770118871731726,-0.6467034379683514,0.9446138755707665,0.0023526475516488787,0.2222298218712664,-0.4580274915812286,47.73479473996443,0.41085358113662673,-0.09010682203483422,-0.7524023411452749,0.323933494525138,-0.09463297191052722,0.00757762046317656,-0.866207882000227,-0.07741597138160272,0.8151083179997158,normal road
872327716274811,-0.9950016065649026,-0.7411184709418965,-0.9045034274159651,-0.2126908379175917,-0.041805945139966494,-0.3252213973222233,41.01678275280284,0.2763242301894244,-0.19360404768932105,-0.7084146055263092,0.9165584773415039,-0.8084190141414513,0.3588284327080675,-0.5234678637413372,0.43988836018487376,-0.6258508797986324,normal road
872327043343532,0.2683454759343298,0.1836571446787676,0.5254319662569917,0.01064682503494474,-0.021652958666936284,0.3436862320350873,43.25637684911516,-0.9259169308015083,0.6070985097288115,0.02133044058462996,0.9466388608711316,0.20099713484518955,0.04544862557185225,0.4877728196660278,-0.06860469318325002,-0.5950674326143166,normal road
872327584112563,-0.7736464951318387,-0.1604298612904953,-0.44525385822920693,-0.26220075610471694,-0.04448085062250284,-0.4468216518975745,46.77792475261184,0.15396144802725886,0.908114515687749,0.10547298940002148,-0.8333468386703868,-0.2077322151274794,-0.5751266355874602,0.487788918892633,-0.7524491022164159,-0.5944139345338868,normal road
872328774390160,0.7288339241635993,0.43343178050548925,-0.9309545713785192,-0.020849539590304444,-0.1691937550240642,-0.4891679641520551,42.52328172350701,-0.25521214435424433,0.7942978282331223,0.03516435374322424,0.8553222880086475,0.8870708823299669,0.02096889964470372,0.5619212292126037,0.3300391055039147,0.27071933722527475,normal road
872326086415408,-0.33699865377428617,0.49034650047131123,-0.06651359255701106,0.11481000579646239,0.4567445209552369,-0.30051341911926877,44.86097950829823,0.6428015514358416,0.9013398806773263,0.45340080197078003,0.062214416260916394,0.9517572701890642,0.3220274261017093,0.5121606006368586,-0.8286765104589628,0.573428606187246,normal road
872328383652653,-0.7242440937155956,-0.09803018739472757,0.8570560800569806,-0.21533131319473875,0.15488703596518205,0.30446975244335406,43.06634789532882,0.03606995771099508,-0.5816504383574297,-0.44808013284302595,-0.7612446089828735,0.5040077064756308,0.41063598677016433,-0.40329921348276243,0.04672094976439678,-0.5747581519828995,normal road
872329319059721,-0.7661750017474374,-0.8448259496039494,-0.7939490913505955,-0.0065551863144439615,-0.08050310084313406,-0.226587630810403,44.90672589087878,0.5728419163914829,0.43647598946584965,-0.3368111487998846,-0.7423387255246712,-0.8031372661737821,-0.8058525130263303,0.004052270341990294,3.134907834434486e-06,0.7178447021847032,normal road
872329967892270,-0.7392360887901974,0.5315551932086884,-0.7983255929073192,-0.3603071787330665,0.14810084714543337,0.018820720097322163,47.930855388817335,0.29948055039993005,0.0020035021198032688,0.2693390369904425,-0.7067386125297406,0.7908819378126313,-0.9218380279521463,-0.041319604730996495,-0.2198793071479188,-0.3528567558744711,normal road
872325799253885,0.9310947965696936,0.44154328162028245,0.7590229657086685,0.44387198568786046,-0.1170140692855497,0.4408918735850026,46.81019312632766,0.5152552903239986,0.8113656008788739,-0.8070473510066993,0.28382694401016884,-0.16860060974356328,0.26801951707790805,0.2686869386508104,-0.4684741329580373,-0.727614112366094,normal road
872329067118027,0.9099869422470361,-0.5502156320824976,-0.8677321518570495,0.029572392512288603,-0.30441636337828304,-0.2567121376089889,41.76974682849648,0.27901760844746737,-0.13629051152605576,0.01346373310495097,0.7034361945499439,0.42751327739730494,-0.2928549722817144,0.7156371281606102,-0.2692553442803476,0.27131856369634777,normal road
872326044504232,4.938506897762634,7.1510118698863385,6.87795290716298,8.235987544223443,9.894779479702883,9.687712727122324,40.071555089829005,0.9433563627756874,-0.9681516617971258,-0.7800762845022955,0.38992258142770764,0.8532715615107158,0.6684218068513841,-0.32072081582386947,-0.32579404907215137,-0.21257614394822388,pothole
872328989357338,-0.8133920797701819,0.9888566851591931,0.5194391107601097,0.37001147867290185,0.12616600500540132,-0.0522596552455733,47.39249492769639,0.0006246165596066611,0.4888665967001906,0.6371566264256792,0.2699063828376915,-0.17646397852984141,-0.8960586965479516,-0.7126142299955307,-0.7320531329697195,0.8041853233774889,normal road
872328265808673,-0.7762366867759471,-0.3109149059146594,-0.6255912816405333,-0.35994742328148155,-0.027463052681120925,0.4125904373783734,46.001469276450734,0.9793431874230432,0.651419295300488,0.8900528754412007,0.7982777148652844,0.5883812101837576,-0.23190195936099012,-0.7965573842455496,0.6060981347513394,0.20687361250045622,normal road
872326470158066,-0.16730544370740086,0.8905962569912216,0.9302679079956413,-0.018552659036624286,0.035115958630689836,-0.32944921998654886,41.484716710301285,-0.32361718536614315,-0.4400760086177309,0.1946816100566906,0.4856856774805718,-0.4938275238293188,0.5360411039157704,-0.9525799131723844,-0.33878085134156355,0.6960208213570813,normal road
872325421510460,-0.9606202059891131,-0.7014868415270736,-0.5483547851228623,0.46186693521270983,0.32249830058580065,0.28803556206617886,40.45712038198245,-0.9150780282181177,-0.9143835069467534,0.6663249797465332,-0.6931936106757324,-0.5272874596467783,-0.12894435055122067,0.9154312952748314,0.6230140925008523,0.548026365223856,normal road
872326566914773,-0.5935705592799361,0.022887685370415634,-0.1038125856067551,-0.4024005347123706,0.488473737619885,-0.0510077794360303,44.73809567499123,0.6295193749624994,0.7079595057434476,-0.6583910240491366,0.7884290348930949,-0.3236568061145011,-0.18940411391998668,-0.274923631630952,0.9517691011587384,-0.1446610401155901,normal road
872325484145682,-0.32603484347650435,-0.4550847608935171,-0.6949384597665533,-0.4784476508478883,-0.43459256646020095,0.07487485925140969,43.49689664070851,0.8636582072921111,-0.8872935863060447,-0.7703795700765506,-0.09914863667348217,-0.2968078289804317,-0.22417619138485323,0.3798406568730919,-0.6347366300298682,0.5192538340890147,normal road
872325521525893,0.7374128924047665,-0.47616928323866015,0.9036662874774584,0.15126249973448513,0.393831010515755,0.1855911143618928,47.87216970695245,0.6080046069483382,0.4080752933181264,0.09360296971269877,-0.36323197506996996,-0.3368776661353543,0.6712024363743692,0.8126210748390672,-0.8354955330714318,-0.05747722599869731,normal road
872326858219315,0.6253407386208139,-0.15604473496552718,-0.2845281613831272,0.4895878542525045,-0.2218393777258022,-0.14189988077460203,41.91416088663212,0.13278177470592922,0.06377226478045106,-0.20226866220268525,0.7315800970228825,0.9777536677656609,0.6138787641669263,0.20740841027696133,0.6926323943300803,0.5850712587346201,normal road
872328113820395,-0.15413057166857191,0.9229694253411056,-0.27102515802965477,0.3528361203991518,0.1310451507891992,-0.31811462973916993,44.795785853403096,-0.4150019617794498,0.31378224400671373,0.2696480709829685,-0.20125583180425477,0.16719457587176167,0.1430739268055441,0.544169752577023,-0.7391518925856675,-0.04062881716034039,normal road
872325842662562,-0.865222441004377,0.9549888472175965,-0.8666562669575102,0.1030075574225211,-0.04044316284235494,0.47483571841204786,43.38358314100402,0.3693039287317714,-0.3535267083781608,0.722015309132406,-0.754794721878491,-0.011375175078888411,0.4371753507679408,0.8376171607962424,-0.11735858465482951,0.29515733525766596,normal road
872325886414679,7.598640715974266,7.64734567310945,7.616630950575287,6.227940529497124,7.658529393292239,5.593110619977084,46.985471771472255,0.3999504632068476,0.5248549708272348,-0.2722529339655506,-0.8528175236599733,-0.46722778085510863,0.2215480720461218,0.08751294003783561,0.5684638903785701,-0.6227994988791652,pothole
872329219904957,0.8430090168828126,0.7332672716136344,-0.6544218719870845,-0.05642217726902454,-0.01656165165850121,0.013683408819533227,48.88272137699148,0.9253100851680445,-0.8339277232350579,0.3675043236593021,-0.2311693412540392,-0.30890512832157446,0.6750911800356356,0.7769607284757858,0.3258251322443704,0.40741113166956633,normal road
872327765694879,-0.7146334959375866,0.12824130154503677,-0.3471979836350305,-0.18083095365193325,-0.41364283085187614,-0.10474747795855899,49.90928029273813,-0.1419593960070511,-0.5980024444572165,0.006638561569814572,0.9179905525342174,-0.5086793315481961,-0.08369290080728109,-0.030610938778317776,-0.7047999345609803,-0.3016619578973365,normal road
872325466963223,0.590131770578288,0.7407631197313338,-0.5447160637612927,0.47871068107721193,-0.08145895790280744,-0.3257557619873256,40.23260081079325,0.375684276377372,0.5570450250122179,0.32761036612501204,-0.6544292684078121,0.5544660955446796,0.06812435574608644,0.35821078193615974,-0.26844558129674967,0.13630677225688026,normal road
872326262504406,9.762989103034075,7.043482048848866,7.040364272491864,10.122746773959246,4.965759201672253,7.946333355912324,42.5219419042912,0.12901818573426804,-0.3894184478496103,0.79936701811235,-0.3027996670642059,-0.8641787950764463,0.2909527067717035,0.762189931993553,0.21903551062135262,-0.18400121503182643,pothole
872329826854892,0.6186802507576068,-0.025738680269502767,0.9880253202309726,-0.4503783908822333,0.3297492156383628,-0.21641432780909153,41.27237964842454,-0.34248033636211495,-0.0011711786534034374,-0.6496891062115595,0.34358532241903417,-0.05669657524262384,-0.22207834538354798,0.9410584379869995,0.9351305037196349,-0.06159826237985433,normal road
872328324214136,0.5114637600653564,0.11509787842070374,-0.8409603939116075,0.2136721819721743,-0.3705037620008059,0.4836209100391584,47.93352574958284,0.17463299263329546,-0.440126831961704,-0.7516744016756556,0.19572399605464708,-0.7050276207456292,0.982341888630937,-0.7620770545514877,0.685791878680061,-0.010347830194123553,normal road
872327130128402,-0.20623662212097704,-0.4433795590362539,0.9213979555609475,-0.06777382511407726,-0.24208467916397403,-0.08171696004964424,49.545631597113115,-0.6593920231658741,0.8372893949932332,0.15842544725598295,-0.8437333929495663,-0.23904950074595588,0.3868830102120995,0.7215997796936999,0.9870923482785974,0.1592484501030702,normal road
872325869481670,0.42578288190224955,0.9746342971562332,0.34469615493595374,-0.11940183355354628,0.006477671003594532,0.16160743332537963,49.45233511620329,0.9489287586142834,0.402591982537714,-0.8978424984214677,0.827819132122394,-0.028770389275977193,-0.1506164777768071,-0.2359841192875627,-0.16151960490742323,-0.1095786573920896,normal road
872326115936199,0.7121890444425498,0.30519534673119497,-0.038067175495019034,-0.02408893469371587,-0.4206561195230133,0.3326436098429941,49.51856592713497,-0.3405545450149785,0.26492029109955184,-0.37070745706668373,0.25892329089686283,0.9376723411027357,0.16915097244047494,0.7688621295506874,0.2639616592876124,-0.9518962052815714,normal road
872329790326200,-0.15075248970247124,-0.5144120260745848,0.7453638541799887,-0.39389301610469774,0.34386974842471163,0.1804171517674522,42.275728899932986,0.9088714322579781,0.04967041412480655,-0.4154935381475857,-0.6234168979048509,0.13128186556082477,-0.578170023087518,-0.6222361808581751,-0.8082564580514091,0.7383028363425421,normal road
872325551830855,0.4664615782942725,0.2263622384915589,0.6116912574944122,-0.32524361026893,0.31131435961427,0.3355440624391046,49.24284072041324,-0.3632176858075009,-0.8754799989212256,0.7234701251045816,-0.6849385106838519,0.5768139781758905,0.6368720631989775,0.7479789159601766,0.8287543377607838,0.6350402145518184,normal road
872328990927921,0.2595154330152307,0.11071362638907889,0.2214477337859253,-0.21747184268314967,0.08531367397048517,0.30783872422855485,46.71766459370409,-0.3525684130219744,0.7494988265261522,0.9376841897240327,0.9804036561551448,0.3138317061051228,0.6793600397136275,-0.6267928004840924,-0.09326708136046435,-0.09170980092985892,normal road
872329905167960,0.20358221065166693,0.9725731202741632,0.0667556035662662,-0.361214270908112,-0.3138210391888824,-0.018609063097814293,43.9672973735025,0.9008608448658477,0.3932834629499715,-0.14194770618719565,-0.6047559014221571,-0.49689659247842366,0.9726692320441932,0.7613177793705812,0.5774540882657242,-0.73868474764065,normal road
872325320285903,0.5882881679154326,-0.15544241348275833,-0.7721258535420601,0.32481382670257797,0.34296629741737383,0.021935842471666356,43.49952862398679,-0.7378168160630414,0.4749625688347481,0.16898725334024256,-0.6876755369501202,0.9446128289184741,0.20615042387210747,0.17590014688379307,0.17949264257750763,0.5414381893565399,normal road
872325145178849,-0.8744942787564529,-0.7227358994928288,-0.19980918337966957,0.3634870950589312,0.014996628621720132,0.3550811046352881,49.37560357362531,-0.4853517797988549,-0.9463253468731418,-0.22663195701901517,-0.4237519766870199,-0.40286060261732115,0.8791743837103247,-0.7429316413020635,-0.7248395484110155,0.2652124506027198,normal road
872328584678372,-0.7753765527542948,-0.014006509152625135,-0.9413617364456623,-0.47693382536623685,-0.42500736646945714,0.47445453492082235,48.33840021880944,-0.12226556685120582,0.4290046411119517,0.0418900671722382,0.187375227583235,0.6988060393167523,-0.44687846776581064,0.4965331198345506,-0.6094132125875726,-0.03821494505217915,normal road
872329787615254,-0.0280141027728118,-0.8378937148522365,-0.456676862670075,-0.1519008783312913,-0.27402373269438085,-0.42088109372297566,40.76188279965582,-0.7211224553211022,0.40919746637067766,0.3129835905653644,0.8006236640903328,0.8964475119278255,0.4481351123627644,0.6175159584026835,0.680702555164078,-0.24267040434889608,normal road
872329392699628,0.6258801843300197,0.41748681181073577,-0.3718070478739919,-0.16118519441800883,-0.25062209852444484,-0.007469070807487599,44.435695135867135,-0.8379270313305387,-0.5833042154546413,-0.4906782894087536,-0.3241334946952652,0.2505384219918194,-0.2960091628942021,-0.9864891606993127,0.9913571402065819,-0.966704217675048,normal road
872326960652134,0.28233696962985566,0.47213340035975215,0.9581728510292913,-0.04654744330302729,0.04689414126891811,-0.25201687180843735,48.025629039532085,0.3209308874921619,-0.5400027385786477,-0.917131918680719,-0.06141368379612033,-0.9207255211217531,0.911172601280523,0.17185089612202775,-0.6602834476971495,-0.6341251000628396,normal road
872326852001524,-0.26356975378413217,-0.6113324254842647,-0.6885284463106824,-0.14188994124828302,-0.4126081622970954,0.3697896807018711,43.61950193473236,0.39307939543540993,-0.8677495617121334,0.029016523311761633,0.21258626892723465,-0.7592844565846615,-0.05460078388934164,-0.3944702393065498,-0.5841002247079916,-0.10860182155579112,normal road
872327688118423,-0.9988524576151558,-0.18303815846733773,0.8800619755347752,0.14207869613908464,-0.30355704993287513,0.3235761365605787,41.55218019306542,-0.16142753994632186,0.7397952058056767,0.4911886178339462,0.22713550531639237,0.434173398353366,-0.34424340614166327,-0.8636086841820942,0.7841536793366386,0.5101077339344282,normal road
872328402222089,0.7773150283642947,0.20633007056283503,-0.9730796867495848,0.4087054557238401,0.1441194009539133,-0.14408476890540545,46.874071260605,0.8212171962895038,-0.5832295958269942,-0.46629474932232107,0.3766738000450274,0.5208993121050183,-0.07575300469327662,0.9754030487430201,0.7619322704377889,0.2985986258687603,normal road
872327655284023,-0.26187292487877323,0.3319263280104059,-0.12743633144213273,0.13709861443563764,-0.14483119943179934,-0.44982522616884957,42.71989885846107,-0.11470828747229134,-0.6125619022696704,0.23254235976026982,0.7309015651929238,-0.6876754812824208,-0.8115399129002072,0.793360406086528,0.7159489428933927,0.499835488027907,normal road
872326698149656,0.9004282078304235,0.540384223976202,0.20557058235027958,-0.05490314959028175,0.11770452224991945,0.24274767898132887,43.780287447505906,0.1192968578836402,-0.9559390650425137,-0.22264273516378053,-0.7611767262791334,0.7826399516748692,-0.7446256611459692,-0.6487360012634724,-0.8210291002534884,0.8147761461260756,normal road
872325749627532,8.742624532801788,6.541821608747172,10.85801256304032,6.374931121903713,7.4909135229191435,6.109840583730386,48.40375729185535,-0.8235614517723722,-0.6759935296508794,0.9313506336005357,0.3335356585941187,-0.08253267841792278,-0.6443995520890184,-0.6255341819239484,0.9090441228543311,-0.908121437601277,pothole
872328991902184,0.9967851766934637,0.22059275087723296,0.5929839392138692,0.3431312416022776,0.23657097719300957,-0.12242726894811606,46.679612935645096,0.6800252009820855,-0.6725878404521568,-0.6749925078307242,-0.1173110540208766,0.17258657884275364,-0.31247606400150674,-0.35379040903572,-0.3153683181525557,-0.5236140703096186,normal road
872326155995802,-0.6600939733018276,0.04682160772290733,-0.7008314594720468,0.0863496705829182,-0.365605755508117,-0.1179566462080125,48.81557969123122,0.038938823953118984,0.017347177999395447,0.7106541447965675,0.4617075540323279,0.7465804478240192,0.9372651904170572,-0.07116835927877463,0.6987536699456853,0.8450402023069721,normal road
872329963527437,-0.9322692930686236,0.1937072081103164,0.10308567061942231,0.024373148258027055,-0.13645630452121782,0.30317082436614284,44.60559305411051,0.2939678967839845,0.8100731573317626,-0.569304481543959,-0.5868208335447396,0.4499770275001187,-0.3310681426526638,0.22458448400859132,0.28393592585948535,0.768893707767272,normal road
872326901361460,0.018959956704630576,0.8801831599766268,0.8976481218670518,-0.14292975995558788,-0.13822936365575955,-0.4673639776317048,40.51405663412319,-0.937227808211095,-0.21480220496379077,-0.4332428202338019,-0.38607323265220694,-0.14117878566001174,-0.949726356690906,0.7407078959542717,-0.21160609917106576,0.8398746710472809,normal road
872328608241228,-0.8934921658856798,-0.8319829084704538,0.9303927734917412,-0.482458626642395,-0.26554292837239724,-0.4412871816826899,43.9521299227812,0.4899097450903669,0.7546954760820592,0.7251440327122101,0.72898357435355,0.21768416150181968,0.6342545326000641,-0.30341405605347993,-0.5058238307245766,-0.0532085463050298,normal road
872325137399631,5.232075901978781,9.603927571364324,7.723394470094873,9.05942631737216,5.15149664515064,8.344324393720566,41.266467305479836,0.13795720206877515,0.4177563058940703,0.04396909734741539,0.3244045159379667,0.8982536098901777,0.46897513869222074,0.7935624357843611,0.8128051516948613,-0.21482035068486716,pothole
872329379500154,-0.7593921870716656,-0.15899511731459182,-0.2739315771010933,-0.39623972787153616,0.2824878844346411,-0.108121016285602,43.65863575654739,0.6889223551182095,0.0777864810019091,-0.6875202345764266,-0.6080478723723355,-0.9680726914551643,-0.6377980357254869,-0.4945131538502403,-0.22786848650635472,0.829842021464162,normal road
872326159516139,0.28881925726939395,0.9062455406717687,0.6310057644462148,-0.4883030248694956,-0.411469461051051,0.13685824894822407,40.563926453828685,-0.8482322075607318,0.8356712696179731,-0.03948746402932568,0.45722428470221854,-0.8273091892090598,0.3497813295631742,-0.4655297926897741,-0.9093800973075115,0.22783379699014694,normal road
872329394669285,-0.06704226646286338,-0.716690924318728,0.555757251801485,-0.07916317241935333,-0.3734065467201019,-0.2210460951793085,40.33140705563037,-0.9253856657038069,0.6281152665939207,-0.375319770683997,-0.15273929025652233,0.37588459887022063,-0.2250477950637415,-0.7316001397193619,0.6039989899496376,-0.054016364045001986,normal road
872327913158926,-0.3161931669196598,0.7575268090377782,0.7647708500703263,-0.3895812750828409,0.22435303038509447,-0.15656954103892862,49.91638247583192,-0.8229381566199538,0.9887981015158189,0.8118301401484014,0.3675386550883091,-0.8413252986918298,-0.7708588755890722,-0.7792741731412491,0.7363601007099772,0.28547227091993355,normal road
872326133080102,-0.6633583638366523,-0.30062862760395226,0.7580175092436863,0.48680593613185663,-0.437974510866292,-0.36965932735715235,43.593494467345636,0.4834481298498239,-0.202653636548068,-0.3716554482406227,0.4548361468081128,0.21250485051468804,0.7432228726344452,-0.7613777151017149,0.15844286596844337,0.5132477524346555,normal road
872325794736952,-0.9128256999187323,-0.5991483888591682,0.33327068492157297,0.19651028573092022,-0.3663898278549452,0.3320033750270255,40.5040038486804,0.9186269453375491,-0.4380460489997895,-0.7231280399693436,0.16386391340283124,0.5441000108646354,0.8270101355441168,-0.9195567394712492,-0.4293979717972265,0.7114379697771485,normal road
872326145338026,-0.30872628366822563,-0.07304605837903333,-0.8306395296163032,0.2612961863829675,-0.24279925529207558,0.4530635517539565,46.273514550748544,-0.927492600698882,0.18431402970051347,-0.9999833674599157,-0.8093117866672914,-0.0036835346337740216,-0.6472947663608806,-0.34087546418441916,-0.13450122388116803,-0.6470781171078939,normal road
872326770478913,-0.49004918784007434,0.11011069236280502,0.6831777483492465,0.48631931863641276,0.13737907343861622,-0.24169612873090118,48.30442849328115,0.7929360735494966,0.5581375406639799,-0.31052444308577254,0.25031706844042034,-0.5883531927275114,-0.20605063568608872,0.7118973901845469,0.06543107705258344,0.6997565025860435,normal road
872329210202467,0.08811439138284172,0.0025654053795001186,0.3292094960682832,-0.23340133138462005,0.0351405825941945,-0.39920842722285044,45.381291603074125,0.2214094394489663,0.8405533279670012,-0.3049156019586645,0.9053301305580723,-0.5311150679809731,-0.6328503709746713,-0.2779972588813717,-0.42145052019934215,0.1725580269561633,normal road
872326664718470,-0.9646392770156698,-0.30701911277809746,-0.8158152188132699,-0.47027497327223644,-0.43186468334958605,0.15603772105513403,46.489797089486075,-0.7209519667007689,-0.015944070631772167,-0.663673037039243,0.8746493172809704,0.6050054197607895,-0.5260943351664316,0.21105889581370163,-0.7025542708744745,0.8944020031936544,normal road
872325246087304,0.9959067595573969,0.07619385688981839,0.27249591951931706,-0.18813350880543267,0.23530661660035457,-0.33007964235461473,47.49872649180413,0.17984856039761654,-0.8786229511924628,-0.18557030992840584,0.01836103891962959,-0.03019490953938031,0.05323094546264828,0.43200843410002965,-0.2700917801540548,0.3623895271592126,normal road
872329860391138,-0.3051832073706007,-0.5565857455519372,0.3640018949604866,0.030569546259327285,-0.4951139362449505,0.3617739773924997,49.064178693744736,0.4301463243116641,-0.8385995825646737,0.30852885770996874,0.2637615936280935,-0.8168916826906871,0.7368928611478744,0.4952927125264872,0.5164486970989333,0.04629195384761897,normal road
872328349602250,0.8694062470526052,-0.5680467840015919,0.8929026850342596,-0.1158583146854234,0.23112376754569097,-0.09535277446064427,44.27100630188982,-0.9371519844712024,-0.7294842193167006,-0.4850136747309357,-0.9473140228473322,0.08954159721943844,-0.0005729550585877874,-0.6313293626047112,0.510739692840674,0.2924695393814889,normal road
872326339691011,-0.4303177451637843,-0.8881983268589995,-0.3001769380138588,-0.4177315626935827,-0.4416691393103761,-0.21942100930120545,49.30849815319786,0.9323074292485682,-0.9539695772597419,0.03517712723215172,-0.24232029098713848,0.36866210454464854,-0.8498637368044193,0.2673552400003245,0.7902321088279798,0.35323150509738643,normal road
872325789981274,0.532242287373434,0.8924879038941402,0.8116503699143087,0.15287104445212585,0.43816938561050567,0.1368515205674189,44.84280967746352,-0.6681287191891152,0.18013468202331517,0.4904751162348069,-0.38931728345135475,-0.7163103220856848,0.8188101408967048,-0.18148622320343266,0.6560301678872493,-0.23040850185918926,normal road
872326190926964,0.645150276630541,0.6410316961019209,0.952874780074457,-0.018039757847746474,-0.14052895039745583,-0.10184308715564805,47.469918945156245,0.8325892439994067,-0.9808957268442569,0.4691714724964404,-0.2749102410662534,0.8242830666013063,0.7069921159047918,0.6256078335676412,0.8715447641349952,-0.8225166651174702,normal road
872329763654370,6.598495289607489,6.0487734273544005,4.321429065700851,5.3732909211880875,8.303466545718171,6.6358309348463775,43.29617600723717,-0.8467788011153421,0.09311293202170612,0.29026958193719254,-0.18098263859719643,0.1482867637383325,-0.938556805049299,0.8049689981962764,-0.3097413874606685,0.3490677375958513,pothole
872326662376106,8.880341285443594,8.152030959251409,7.082727533184684,8.993601109190084,7.4757424462169535,5.300385451728845,45.89346813600577,-0.03950613846372808,0.20069328827131416,0.2802483855524185,-0.8973401664357439,0.5682835700642619,-0.8143197626732941,0.6818352773764771,0.718705313638633,-0.2861629524165865,pothole
872329189067885,-0.1061964658544936,0.10009984008715533,0.9526303026439464,0.3002768503942177,0.41583702083877594,-0.4782419000599676,49.05759752502206,-0.2873812483541005,0.12457049718341695,0.711381558361545,0.27777014169495984,-0.2886813952294054,-0.938416833836597,0.7619534119582185,-0.26410855428144187,0.7925058466653014,normal road
872326325529134,0.8330664153416147,0.371889784868195,-0.18286956201256532,-0.2357539204696869,-0.057332415088619415,0.2564208068491818,43.69341019166248,0.26706718612897573,-0.36684121950356285,-0.23534196075910963,-0.9930597540144683,-0.5087033749014365,0.29118672990767425,0.9793408268813499,-0.8319786194771477,0.4032887557464997,normal road
872329141064152,-0.8159546665335675,0.19845119373853914,0.8555838984160666,-0.36541861306661605,-0.4555411287092749,-0.44565630075202733,42.39495963550221,-0.6005637967611843,-0.5572916442650413,0.6358442461816578,-0.9657960497115894,0.9490011748930645,0.5372744492281811,-0.27071743921330516,0.819623963827744,0.7731985107412924,normal road
872327511924432,-0.5878604121939754,-0.35820670655028164,0.8883568484250646,0.2293473489953406,0.32962002598956996,-0.10567600363966279,40.651901624666124,0.6061061274420296,-0.11067559120553394,0.3616699123795699,-0.3719930309707262,-0.6424315242930516,0.047248175677667925,-0.7158323552078227,-0.7259105738126805,-0.21840676807939774,normal road
872328833905124,10.404504434796365,8.786353926492936,4.245812659799379,6.544008733181282,9.446173825100868,6.48552685909832,46.778081131024,0.18434810207773755,-0.41913897072113193,-0.6571072687819366,0.33472050301239076,-0.8719379063067796,0.2997790128096822,0.25768431585546847,0.9382001610974924,0.1162182141497945,pothole
872328716844002,0.4910010247768144,-0.3557386146837451,0.37142751263171614,0.43604262422564366,0.09359927926492928,-0.3732219949794735,41.160904404827924,0.5522422458631913,0.6712160094635853,-0.057855629618106086,0.5865670345528968,-0.6864344602657431,0.33361467657713995,0.18463405216725404,0.02472857884061952,-0.15943871518501274,normal road
872328863913007,0.631470890239026,0.5899205492203254,0.11488981439498569,-0.34711423347768877,-0.2638241420857016,-0.1896247641661597,43.24082919476822,-0.08589292179403474,-0.8550799177554174,0.644194942968916,0.05297523733012155,-0.9683373105694848,0.18144306168625302,0.38839458901591173,0.47137737557101356,0.3232330053987422,normal road
872326656469209,-0.13534993966937559,0.04665775963630714,0.2570922391903976,0.19438945856354517,0.3842474921540586,-0.23679645114085035,48.88143647646025,0.8592644287457623,-0.7759012391556737,-0.632168148764088,0.0639866272730516,0.5626827750793437,0.959383956475415,0.5780392255723144,0.6887059889913703,0.8125012224890844,normal road
872326364701735,-0.6262720818373626,0.903876087415272,-0.7072091092150294,-0.43167987337572455,0.2457960253941418,0.30199971560904104,49.46882163777714,0.6871129452247593,-0.2887852935131061,0.974445921296051,0.15105837744789885,-0.6178812405012923,-0.304311945005205,-0.8230184121613107,0.34473922047795336,0.89041764689896,normal road
872329082401493,0.15997746042163907,-0.5575129542490438,-0.5657892575760006,0.4033943697946817,0.3315149677218625,0.4016057115380419,41.79765598563755,0.6331371395664003,-0.7904286366635842,-0.6178291435125733,0.27876605425219947,0.44667195834758155,0.7331471541907812,0.3155379520822603,-0.30451865198257866,-0.9805881854655538,normal road
872328542452878,0.37399025436703126,-0.10901589290892577,-0.5729760847902245,-0.19653123021981078,-0.27640409285663636,-0.4811206550157382,48.47404168619131,0.1929669425269409,0.8566327772455904,-0.36013020520201655,-0.7475939737062212,-0.2855933764887906,0.4092895186070904,0.204791907514555,-0.899145951477156,-0.8586314243627189,normal road
872329920493055,0.9511458348263397,0.28717642587241254,-0.7504984199812352,-0.16635275959417406,0.20266675070790363,0.3094924764004846,42.13527911287922,0.4410367078697892,-0.6841685451256803,-0.4562392165199394,0.26768769907045353,0.4193716719238454,0.4233468216049878,0.6163660682256187,0.13102522107658188,0.32613445248298056,normal road
872327701494416,-0.5676249027314599,-0.9537764419241859,-0.2794783473433591,0.10959306792899925,-0.3570059313824824,-0.31950517820857227,49.04843881196969,0.5374320309999541,-0.510341972953293,-0.7784689180432744,0.12368272698601768,0.02733452236083389,-0.026637096429311002,0.5449182165905446,-0.4562100144658463,-0.06798988962220864,normal road
872325416601170,0.9192776935075575,-0.37816774505256556,0.5158250027891631,-0.11924833058356255,-0.34033586810235184,0.21230231478384898,44.89521540101828,0.3069617575863681,0.35026441725770163,-0.8947813054793672,0.8338469981509413,-0.7485544468755643,0.12971589632402192,0.054460397727916776,-0.9829271400794986,-0.2060347295865208,normal road
872326609387268,0.7161522142927497,0.21962974364869892,-0.2602145027082763,-0.42045377831722375,0.06953725977775782,0.47423290749058744,43.07800449078134,0.16079608654319655,0.2591437794974971,0.38823867541278556,0.1750133195989303,0.16071226720830012,-0.7974263739301881,-0.2586805501345679,0.8463838973415811,-0.9897005421992129,normal road
872328624678595,0.4460132949199973,-0.06557716968001337,0.37385530805139977,0.11357028105199085,-0.2949956913321238,-0.05716051179440207,49.937447794624525,0.052440491771647,-0.07571892838472905,-0.07412958676767323,0.30904738039253377,0.8836612137372739,-0.15825298257477738,-0.6460520591098331,0.899635066415426,-0.09897322072095727,normal road
872326591153684,7.516058259357232,6.641709262710577,5.729220816162803,7.877866115042303,6.718719497429776,6.962428907088217,47.96864870355721,-0.8250148422887118,0.0043786624877737435,-0.4649731773762418,0.4895957534613722,0.814656133805018,0.5025449554721042,0.11041470364387096,-0.4346241218950533,-0.6483569687447286,pothole
872328214468569,0.05211242154419615,-0.33060561140874856,-0.5658693172231364,-0.07243598576974897,0.2829406453870261,-0.37685804462773076,47.435155961732306,0.6625595933347903,-0.09506602124229158,0.8489200414998779,0.43821751490421335,-0.9368774157937627,0.4870960517911267,0.5421804159251162,0.9608350313101013,0.4274285013446151,normal road
872327640944613,-0.24511419577306337,-0.35563663676637725,0.5271062176804535,-0.4435500971682038,0.10161237252713362,-0.1608678451035057,45.61450559572302,-0.6195730751012043,-0.6849810988292258,-0.6407328719444301,0.03414198239318056,0.6089855316872901,0.5767819705759363,0.9136856830973052,0.8021460202793544,0.27921519169080566,normal road
872328987557275,7.9732067380062785,6.221138103636038,6.934474654719571,7.579320111695961,5.059782965739575,6.454826644074101,43.02339852045159,0.058080300988143874,-0.29815112242358266,-0.18117995249946728,0.4426393140307532,-0.37861626501106804,-0.4191786780849902,0.4593797784368432,0.6335832117716118,-0.258133490794501,pothole
872325565623540,0.8877074728665812,0.6742295950519772,-0.9920124512342423,0.039798251402900275,0.45243170884185613,0.21584201471882902,40.72874016649729,0.2081269766920495,0.19842664098426432,-0.778913819525406,-0.0576699088921111,-0.5117928181568174,0.4250199384568041,-0.6811974109745322,-0.6490835224258644,0.7236558581597115,normal road
872328269283434,0.5598608356953911,-0.6403943340111786,-0.41507084991757903,0.4326302200559413,0.32075596112802396,0.4090668867317482,43.350137146975214,0.48783643223688644,0.5501759381756504,0.9569327373441332,0.6613628684998523,0.04380072986464656,-0.4033152737331256,0.9115939070959174,0.7204899291511486,0.5541822346866931,normal road
872329803529175,-0.7501133800101076,0.6360400752797815,-0.8145230840836766,-0.14921812297217907,0.35791292805451236,-0.453683923196313,45.86785411234991,0.20342140570451872,-0.7418371634190115,0.16465608467859072,0.7781947567281879,0.6185918040380127,-0.27655286069464124,0.2866712652698862,0.6240952126796353,0.6670731307062465,normal road
872327246294601,-0.6576805645618913,0.9725333189301975,0.34453516657630656,0.16938208874809824,-0.2991288042392598,0.48881978383071467,41.77497967431683,0.09940694142284956,0.6628856247699817,0.969061588874301,-0.6522128234136906,0.09231167893314862,0.8225217767627553,0.8485720286628691,0.6699455441459063,-0.4324885510801566,normal road
872325946488622,-0.4585927122536937,-0.15646094323577175,-0.6887056807133665,-0.4889636602405718,0.16378442872383991,0.15269791064130267,41.64300745362459,-0.9193973593638702,-0.992217971085563,-0.29877169142123816,0.920733576122041,-0.08035756409125283,-0.03574751985721636,0.01479246361091624,0.791633749941395,-0.9513877038816918,normal road
872329791453949,0.03546101448617023,0.833489042795772,-0.010677159089351296,0.19725459008432766,0.23805786371895077,-0.04585962832170287,41.93095181577972,-0.9480803568718366,-0.9553521725548015,-0.5355991981488728,-0.5687139892007005,0.41571853196318065,0.1360959343010597,0.9628353117142832,-0.5988366455119123,-0.7298739225562096,normal road
872326570914553,0.7093262412031729,0.0027579235439545435,0.3904744900448349,0.04050336087310369,0.034791273909071774,0.0005389929707144692,47.976601123003924,0.8119708580728706,0.702003356580843,0.03214848001747339,0.23845637102167072,0.44368595581723747,-0.33951022099222383,0.4686634740755413,0.5697551130613843,-0.518443819204613,normal road
872326110776356,0.6303132405145115,-0.5803165216845043,0.22778765255357736,-0.08794781089062498,-0.4315032241357454,0.36717637100667344,44.17639293897779,-0.639638638873427,-0.7176528696745494,0.42397589683574455,-0.7643759543542892,0.10385776847310657,0.5619577323970133,0.8969352020436974,0.31593327649152014,0.5599900279347743,normal road
872327706755750,0.5994977462904973,-0.9573744842297995,0.7454806800767695,-0.19811528453723393,0.35593137840216316,0.12458744552212586,42.29050587710212,0.8201691130438757,-0.09622982939322444,0.16386655314038157,0.44984990979640993,-0.13809172921953983,0.009503543809662895,0.7691944212302992,-0.21081770172470105,-0.6821425525552611,normal road
872329029910099,0.8888391349744125,0.6161638769599096,0.47843839472641214,-0.2524023299598377,0.4783043847081718,-0.181567533869468,40.44562046465732,0.1708796541526929,0.42119508978602505,-0.15255636156742658,-0.05208599189617402,-0.9689760263114338,0.9504881852458995,-0.9730284164004348,-0.17387644303615102,-0.4638225276595589,normal road
872325130339568,-0.8916706753200065,0.4883134169371419,0.28864440163677996,-0.09290951677881432,0.006513302561034329,0.09445436314856348,49.85842503956941,-0.23082845419939857,0.007082341106142476,0.7156618221627529,-0.6680346729609592,-0.902764528141313,-0.502838611768557,0.2535324637669467,-0.680882958444545,-0.7714019245399222,normal road
872325382709544,0.37318788704119177,0.34779869139974373,-0.9630631853878637,-0.28220155263878033,0.16945546907891307,0.3533411587986982,43.903567432660054,-0.46555434968030585,-0.8480015926195068,-0.6612648174694264,0.2833634815536954,-0.575672439139129,-0.9416080053727389,0.8138196827313458,0.5256133050625535,-0.42708943782654973,normal road
872326420993896,0.27913654727753845,0.7201416547035939,0.8537103198856315,-0.45117973570314096,-0.27559503956890274,0.20965952232241736,43.43280788366564,-0.7366464002268025,-0.23434260587759725,-0.7978561031092921,-0.6743146187627689,0.7689852978879947,0.9714152685812971,0.10517899153341537,-0.5820263286735285,0.6108569193103095,normal road
872328011957252,-0.927850856233877,-0.8096526352821924,0.8239354077756302,-0.13422544771210365,0.24508122046327652,0.05553857047958399,47.3162424081128,0.8546153845610995,-0.2978240945878965,-0.3637499824097463,0.47967289030095306,-0.19968988953590094,0.7075038939643996,-0.17604948122266362,-0.4878280452909558,0.9662241979996713,normal road
872325377734949,-0.7648175083023441,0.6155980952845204,-0.847347690524971,-0.14015663942873047,0.39561746527952,-0.02515719791643145,40.88700598918699,0.09725920855319936,-0.028819150443557318,0.08317082775636031,-0.6074989740081602,0.44989718868594997,0.22079678736415764,-0.21839344119509585,0.34276679041775937,-0.33334847274797896,normal road
872326703935095,0.28193392470358924,0.5629816392734524,0.4696789830412984,-0.11410572610209391,0.36223889801476394,0.16478976141462387,49.77847136363998,0.6610029231746002,-0.06221912469958912,0.8474447207271536,-0.6418184940971696,0.509416950580762,0.7770196867069472,-0.461794869590757,-0.8655019537321871,-0.15561961563665117,normal road
872328175462765,-0.009024702691303732,0.8554768462121358,0.99344300842565,0.08797549950100847,0.2528210231903233,-0.2796836406204185,42.2586650804625,-0.9021010384038928,0.42679755793748697,0.9584297081990569,-0.15235626738637453,-0.3270014008419786,-0.5216916081676957,0.07934294099838324,0.22615803342623497,0.8225853493821742,normal road
872328603878721,0.7604124506070762,-0.1455071609684475,0.5551196305251183,-0.37105560163022366,-0.036906457695190076,-0.09927674966213984,49.418725008097184,-0.6238109808833021,-0.21455632553593995,0.5414023232194201,-0.31548281625652197,-0.0977169172419543,-0.9088068905693509,0.45364168081192635,-0.7230222264127293,-0.7928027507489723,normal road
872328854058860,-0.9409514833792223,0.23446724896280258,0.8521161589455895,0.095818685867889,-0.28803104122259304,0.25071820746707874,46.09856825976669,0.5220033037384961,-0.45967014505122505,-0.5688593379442501,0.4649069471891787,0.018013495460240225,-0.7632248678704276,0.0837529089684732,-0.15139863926038855,0.3404071205730157,normal road
872327822349573,-0.1940361752943638,0.9789080606526821,0.2836962137810217,0.45466895968144816,0.4419494079427503,-0.3980259958825333,45.8518723280216,0.3922186889513801,-0.42795724882790953,-0.371601329484716,-0.3358806939968413,0.8870036120205298,-0.34635678345926224,-0.7215162995377142,0.8100854387840246,-0.40298557879256425,normal road
872327192389828,0.19901195472877276,-0.9129776211698206,-0.8247635592127847,0.4815604468028176,0.3480255731319235,0.0029977564163859993,43.605496198583,0.27960626838111424,-0.6071241223535744,0.04899239740914996,-0.8033679129505442,0.7769424610188487,-0.2048874874866009,-0.4136004816936725,-0.2010139103155093,0.8188641533740895,normal road
872326946394279,-0.6758149914011806,0.1198028106634419,0.4116869754279342,0.15604834780194732,-0.1621552174390909,-0.16445860377357957,48.20540873952275,0.12800850933507224,-0.18579054957335828,0.6061269148191877,0.2795576835699467,-0.592083135644413,-0.1531508290064425,-0.6663146183321591,-0.38257588305680645,0.016956209729484195,normal road
872328006704269,-0.8982316442914495,-0.23422473858019455,-0.702450769285266,0.045988102546993814,-0.1751519472812585,-0.3514645517178453,48.78832804313005,0.44433029669859603,0.9620870253993021,-0.055975995454242256,-0.0895775427979717,0.5765397924518336,-0.33553035000763565,0.288774437968617,-0.6742457863025546,0.5011573543176164,normal road
872327755721169,0.7701662290396705,0.7768551155144439,0.9677629482024583,-0.35837253646061473,0.18609140286113257,-0.18777775921089346,41.81824877973996,0.733112700359867,-0.486149670559201,0.4667034116788895,-0.08863425590653562,-0.6490033470643486,0.29356282156446367,0.6874421844004142,-0.7669754712579921,-0.47401565599772755,normal road
872329965954222,-0.679735236547468,0.6519899502826056,0.49384412648796006,-0.1373664670415885,0.2821696707224157,-0.4634613100958034,41.53701938289452,0.828172926881581,0.17795081975653848,0.270838184449983,-0.8146190136159099,0.8076354094329041,-0.48488297385314905,-0.3917805550837963,0.017074497283854573,-0.9922053498324761,normal road
872327727219521,-0.15147238611949376,0.42484681257941315,-0.7181264337029094,0.34172196065681426,-0.4793214577591879,-0.007541132710811249,49.85926884322786,0.8442031766309817,-0.8581372589146901,0.0036201964897293326,-0.8451702253491205,-0.06738777418086772,0.04091065511127101,0.8928342336315311,0.30231277542380464,-0.25049733502658045,normal road
872328498323398,8.50401448117498,8.819458465090314,6.753073977713142,7.195535432467643,5.83140948917572,10.070889306463252,49.31517750480997,-0.5660629369930483,-0.012069512746298194,0.9567539481570251,0.46032504639788496,-0.9463883119394523,-0.7635150486805347,0.4870671095518333,-0.1459663491999197,0.1836097632323661,pothole
872325755245202,-0.04148706910954725,0.8771931285960493,0.36948055703322025,0.348153385182292,0.1371163581099618,0.025888713433028454,41.34369129091699,0.3969110759463046,0.8446275117512936,0.8001730780824099,0.341058771887254,0.8622503443355323,-0.11444734009315982,0.9719334006945195,-0.5171375095457857,-0.8010330366319687,normal road
872329499192277,-0.23145934638157284,0.5553935117212874,-0.21964224769678853,0.4596356523894375,-0.27424129016389376,-0.1210450028879857,45.45768478662632,0.9336972360526099,0.06468211511760735,0.5692852723125621,0.30473110720842134,-0.8999057872435889,-0.6937093787332944,-0.7227728791295625,-0.2107827261453783,0.5844733533887934,normal road
872329258803572,0.008564186851046651,0.48847497661508354,-0.43238001745186816,-0.49078144228768317,-0.19096180124415651,0.37157904590371194,48.67694355554633,-0.7880615527947405,-0.903353795699416,-0.6722832205219931,-0.5564862465885776,-0.7441112852226872,-0.2823724308858413,0.6044060692414586,-0.2421448303141962,-0.7721295138855424,normal road
872326619233245,-0.9191809660527615,-0.01123547999956842,0.4477443334736426,-0.2741830799461825,-0.29950872597705636,0.0446315675197696,40.04357725152811,0.610082828080913,0.5460340209995271,0.9106433897858883,-0.9190142932118481,0.08951583590081236,0.015145006256962246,-0.3327855094449974,-0.24525534578286545,-0.5930838915650407,normal road
872328666034447,-0.9326552706862183,-0.4057141733259435,-0.9808586971777042,0.029495205673880975,-0.2922535283867549,0.09767477658224333,43.35532861841841,-0.6382270457749115,-0.08021160381998671,0.4543165508203677,-0.7195925820795952,-0.9148207124447025,-0.14112789877151433,0.8341343724079693,-0.9814610044890266,0.06268042953857345,normal road
872326574832363,0.7382362663918958,0.37906439425079586,0.5219300878856745,-0.49956498531502747,-0.31538546191437367,-0.4931845227712929,44.395311161879384,0.9335348735668989,-0.8606313994554424,-0.901970219103674,0.45560185321252034,0.5562583872158844,-0.9178013909115883,-0.48733790360196716,-0.9415871518811065,-0.19166534922555067,normal road
872328640668432,0.3421992621441743,0.18647170988159156,-0.970993592759883,-0.31227953710633494,0.48565408366546015,-0.23041749237207532,40.2697464921563,0.4108843690179438,0.200918392553173,-0.5747980828874,0.34838356867122844,0.39759592824119383,0.5779495250317188,-0.6260429876125853,-0.13256931079018308,-0.4933582062871571,normal road
872325389821113,0.6444045484765808,0.447752024178409,-0.3991770727111714,0.40648594179155284,0.2230572506896289,-0.48041608136961034,46.05177063031516,0.2965758505345124,-0.5151979665141122,0.8172875828287556,0.2202939509746693,-0.1915293521706547,-0.5904818166532648,-0.2461055862516408,-0.31192842310380864,-0.012332698708781509,normal road
872328845448702,-0.43656808903312116,0.6215503745416369,0.5138009301587745,0.035228790786620334,0.19894548623837116,0.3759601562417667,48.663235179271595,0.8705667380234492,0.6352015253375272,0.9153365800904212,-0.055452507219077685,-0.31012706864822825,0.6066032896533327,0.5140043421520764,-0.8882295756797851,0.1739188401100673,normal road
872327194983391,0.7433490977369961,-0.8734282247383645,-0.10407306515994552,0.12092632019942806,-0.08284865612629644,-0.478008862777763,48.04024662147772,-0.37395748701737563,-0.8330056983522174,-0.9810564790834864,-0.8464025971616778,-0.8803812213068019,-0.40698907509327675,-0.42643982133065195,-0.4978106729846561,0.8455536547049829,normal road
872326430532935,0.8986291062066112,0.2552037522313033,-0.9638941123153053,-0.30789513144365,-0.322187635612745,-0.07701771955051939,49.682719523563364,0.4838428045040257,0.9912761066261293,0.9107940967610444,0.42327284311852376,0.49464554261574434,-0.5879312953892504,-0.07872766186915126,-0.8995342981974526,0.8027514281277615,normal road
872325149438613,-0.42861322712530914,0.25029351530706556,0.6627184054134112,-0.2383360486093874,0.19570592927487707,0.42320645869964235,42.066802527580805,0.6490635558251672,-0.20999225056591175,-0.3591857587468228,-0.3644627410995629,-0.6606622602457466,0.8656155835034554,-0.5657175932768206,0.051897340420504756,-0.8050730824458614,normal road
872326808826713,-0.4927913852495551,0.0015420441233042759,-0.7372121638209566,-0.46331392019078543,-0.3804986256944274,-0.24122250888041197,43.845453117525565,-0.3497623614002241,0.3575052309789051,0.4346479927693012,0.9866697191057572,-0.4461686494781498,0.6501181620832139,-0.6225229368348353,-0.8882262642323069,0.4503954497147966,normal road
872327672859895,0.5105701684294464,0.610971931659922,0.7593533518798854,-0.4918142682961568,-0.15977167601960818,-0.18462054841037356,41.085918090428734,0.6587993420774616,-0.38523194821493356,0.9139473113654482,-0.856635726605883,-0.9614783508781586,-0.10386181198415723,0.48072643853246366,-0.21266344683713134,0.7424920582223515,normal road
872326841455906,0.9742785814439452,-0.5757470266904812,-0.1355102413807352,0.07420331662398783,-0.42836272873219017,-0.2904572760716354,47.27392162345274,-0.7372280120254509,0.7302265227859255,-0.07642053160061235,-0.5294499293284394,0.8899757778160386,-0.8720030361036735,-0.9012570866055882,-0.4070113269408129,0.18183744854026518,normal road
872327015120599,0.2955902792333116,-0.5331101079151281,-0.5079200665203154,-0.13750310284425227,-0.4226535533826492,-0.32937583226049105,44.14033564744193,0.2126874859784189,0.8886038234854168,0.34503555900219895,-0.9503967869192651,-0.7630351858692443,0.93005394258736,0.7530965081011727,-0.4096772103189019,0.34936631709984023,normal road
872326833037288,-0.6454371481102683,-0.7535320881657872,0.5063936129058408,0.05480685580313638,0.273739089893295,-0.3735821459045333,41.13997320950804,0.757198136762604,-0.9847819327941336,-0.4229207974653293,-0.6941690237389315,-0.8827525764272237,0.5973736521496482,-0.7616684820246207,0.9781934004301978,0.3743739383553666,normal road
872328260492919,0.5412389975379164,-0.5253592596988768,-0.9483214218847746,-0.4202004099150384,-0.11249559325225555,0.12193642733346033,41.22403046142152,0.650212912476896,-0.7433914138878936,-0.7067592647969638,0.5708067100212246,0.6500796283984804,-0.8570236819364725,-0.7935592986210764,0.7005148380323309,0.9802423198856707,normal road
872329764584988,0.14979047709398063,-0.965821767691406,-0.489094215360131,-0.4674239327193902,0.2457603831141041,0.1574365905061963,48.73427513600145,0.018660197022025038,-0.37570559524151736,-0.11518008502553867,-0.42733938749598854,0.48721541673483393,-0.6940132085085333,-0.03157492120492966,-0.8291168515026097,0.7528777908492617,normal road
872329270806988,0.053113539654344954,0.6848888358257619,-0.6574889560726465,-0.3118129306792875,-0.4546620572847462,0.24525388882038246,41.74617787871488,-0.20953914785881245,0.31080862305558066,0.047645976912996435,0.10198949208240182,-0.9875634879214916,-0.030719574386696813,0.3332148868055045,0.8367140845148062,0.8281870855951661,normal road
872326995863132,8.744576458404245,5.809489490238025,7.556518954056198,5.8369494481513415,7.01126810496565,8.151768014364627,42.53634653807558,-0.681996815095046,0.8448734106115281,-0.6741006056216747,-0.2742762126882554,-0.7480694591824015,-0.26685894183644354,-0.952793900218188,0.6727043718275156,0.9435893274370253,pothole
872326413148258,0.11925545855009911,-0.8767224760058185,-0.8208173236312295,0.16394086443034972,0.4030952263568237,0.19652298700785464,42.59292920879373,0.9350112880978665,0.5926391891175906,-0.04605221771790058,0.5308962930562622,0.6198607259762032,-0.9721215919091613,-0.1976428459261228,0.2805988519956759,0.2247007376648471,normal road
872326597636916,-0.0626183907640987,-0.7524012245207503,0.34462476528312935,-0.13157149313968364,0.2045460029211491,-0.12033258517952938,46.595702802513586,0.3940413197771966,0.8810089163902444,0.463469022387619,-0.7812980791135324,-0.6115782898715652,-0.643308136267358,0.6724219269224176,-0.43207843454974304,0.9893972992484283,normal road
872329775898359,0.3004617357849677,-0.11585414273513561,-0.13797362944424907,0.05270077390496786,-0.49823201272095086,0.13920261976889814,40.42141982853314,-0.7998220834683187,0.11855728396652543,-0.09680399998842959,0.6280413148135868,-0.37320870212256785,0.49253541360393216,-0.14221100205075077,0.21216184151877626,-0.01300770438590848,normal road
872327777084222,-0.980173798842954,0.6617396435588188,0.08771574662058579,0.07503668213832293,-0.2989733287255688,-0.12551529383198967,44.44055786224359,-0.1513314544459452,-0.27303873426513015,-0.20012378891316351,0.8148803947542396,0.605924926842764,0.1922743066285726,0.26119017768427666,-0.038538871589113066,-0.36651727976308734,normal road
872326310553065,0.5013733979711856,0.2882543724166735,-0.21228713937356725,-0.4655732460956715,-0.3308878750380847,0.06143629907635095,48.29983542593558,-0.06389577085099374,-0.5936485518435946,-0.2788904767376785,0.8574046176626726,0.4856529745780265,-0.6066534126708933,-0.31207133996851577,0.5586752937281461,0.9150778160342283,normal road
872326557205245,7.121476345516115,7.153896275427655,8.489653366548973,9.234432536711514,9.122809693302752,5.274032780761586,48.48379706927415,-0.8655209951892957,0.41466644344813486,-0.717308304356965,-0.19603284449291625,0.4733825440938908,0.24574471487787952,-0.24355980529393206,-0.16915104017021587,0.020367750782468663,pothole
872329733286056,-0.15154781647297622,0.598533201229436,0.8781481451931883,-0.1631619991155432,0.27244536145808884,0.29339593298020006,47.4216187702939,-0.3975633172555433,-0.7709080655548721,-0.29038902262784827,-0.5991684395720236,0.6164248372943368,-0.8500305703586224,-0.12964346847057917,0.37699355515129374,-0.8171304588108947,normal road
872329003348614,0.037585865113511696,-0.44250116469310075,-0.7974075465177335,0.2612460618310376,0.1931685620821072,0.25222776594253415,44.66235777744235,-0.6010272685762432,0.5245631190248832,-0.0643667973718618,0.387151754846907,0.04856625885999488,-0.5534659410840952,0.9507136016031794,0.8706195992235011,0.9406295904596242,normal road
872329605977888,0.13068339410572927,0.19530548377094803,0.024342913983049108,0.21686132952531945,0.25775269785159904,0.1725725099570472,42.23562585006059,0.19976615066225945,-0.8534282477306905,0.3126481647617938,-0.5903605465226156,0.33904617106125756,-0.9356810992702818,0.5771431629411778,-0.5530694987137907,0.5735345468118578,normal road
872325025677981,0.2711934489947392,-0.0762081887901016,-0.6614446913591903,0.43478176880140573,0.209483102847568,0.127246246784962,41.01845728213235,-0.7287649729791206,-0.19511377408294295,0.0324402475731127,0.8967594307620894,0.0339497859188842,0.4696657266328441,0.20220963866946606,0.6084787983769158,-0.12872030727464212,normal road
872327327161848,0.7975931512935441,0.31216546323903827,-0.8234743368959281,0.28305755528512333,0.17163968506712723,0.3794346445904402,41.81045596642613,-0.7629728140619754,0.23275327965112136,-0.6942629077966036,-0.6722069851979027,0.8796870690653125,-0.028169660748262437,0.6445524039561066,0.17782213442122852,0.05630511275009331,normal road
872328372516829,0.47926115065710984,0.9125789595759333,0.2818738139335013,0.3061171989073146,-0.08167489638792635,0.46816352746468537,45.08880095191128,-0.8179906564273567,-0.44209495017473355,-0.5794879579330221,0.03179689859958579,0.4563956644923999,-0.8753953533514851,-0.7526490833463317,-0.24078296936664856,-0.8025608135629372,normal road
872329433324781,-0.9562693369419506,0.08813248463461365,0.7561293477210693,-0.36910822217692174,0.1885048008437935,-0.4999796067210027,40.43467829559499,-0.2667473426392468,0.3120849262939329,-0.9744451350101577,0.3602798543549277,-0.5973429347773502,-0.7645474322537591,-0.0484662423570712,0.7679357725174045,-0.31169445862849643,normal road
872325047728451,-0.49069799774147005,0.7884445014079435,-0.3468158247820812,0.04949430241671848,-0.171945547657262,0.3229172071269001,44.88298837322234,0.056125595389535654,-0.07714441643111347,0.5736705267125355,-0.481719681885431,0.8768443790869427,-0.9147633008118166,-0.677372632973209,0.45491101028129566,0.10983982662402658,normal road
872327222652238,0.991568980500362,0.2630845269871087,-0.8986064054809557,-0.3008318550919551,0.14409415353113264,-0.11190847960904005,42.763427093258,-0.567665742466881,-0.9732625815298104,-0.6722591997061016,0.7076900093107805,0.12615394392926293,-0.5783165447289724,0.7270731244472168,0.09004591137393136,-0.5069673126853766,normal road
872328610594844,0.026672835929054006,0.6307692215660197,-0.9334610667473207,0.2577792796066981,-0.3941194809778127,-0.48773802902727803,43.53165457680437,-0.359716746661606,0.30822673557101576,0.5638407270154477,0.07906184694036322,0.37388078801156244,0.46992524689151094,0.9811295588032694,-0.03735592251811193,-0.5542679004270343,normal road
872325896980734,-0.8192465943988549,-0.10298404749180223,0.9473465711650668,0.4942325345475648,-0.1724266063727039,0.0970150418119764,45.12845927548908,-0.055206397679563146,0.22202880618760945,-0.1427082545319025,0.8254034017197998,0.3196065631424725,0.6454006964678689,0.8815983449140652,0.8347799498491264,0.5404984162073396,normal road
872328865161124,-0.8062782134756767,-0.7752549359733345,0.12687843331992643,-0.2428369926109849,0.3780948655190368,-0.19847293071599326,41.23044988283177,0.8699172430419588,0.030128855545914934,-0.5350142790508337,0.6317978092224685,0.8757639716074388,0.9366420497351191,0.40644715900512907,-0.5923392708192441,-0.9023675106315499,normal road
872325184259947,0.4555128771761754,-0.512566998801004,-0.19342342254781464,0.3461760637304607,0.2956995238852814,0.42920016401282046,40.4676582053514,0.3218389561423749,0.16202178570490378,0.3817104386043868,-0.5140589518077285,0.5748728335265796,0.38063111032213026,0.813559612538225,-0.2976103611548513,-0.5403401760387385,normal road
872328859327869,-0.632451017566207,-0.8218997754968214,0.5656128017170265,-0.2811082608774317,-0.36369282183770646,0.08880363527702584,48.020454117333635,-0.8230655054582035,-0.3765169017449903,0.4226371470564556,-0.9589058038384124,0.3340047023239281,0.60852772367961,0.5275956394711765,-0.36374276998163513,-0.18512824369694747,normal road
872326273700177,0.9574826861685419,-0.2004157965241724,-0.6417229755675666,-0.32076935502775517,-0.36993672964654034,0.4907299613396645,47.88576553867961,-0.8154454904772503,0.3417961167724164,-0.09767217343571066,0.18032041955240818,-0.33372214662023136,-0.9687765647770115,0.5938995069547319,0.8697843599387893,-0.5277671154667067,normal road
872327389283621,-0.004260683629682349,0.45301433400366764,-0.0324413277187201,-0.3913905964867461,0.30547998730318937,0.4736563466983734,47.21919710352288,-0.6732169152491414,0.42522892251261757,0.4501666317902595,-0.29295383101236405,-0.6487320359772768,0.041747286479768775,0.5561131833923951,0.14805142067723165,0.8309798786514377,normal road
872328043492978,0.7015174914331321,0.32443302197828183,-0.11472742710897088,0.4235420215199348,-0.373329191115101,-0.07454517113376369,45.154689000228736,0.31491548505203437,0.9375785472732123,-0.4590251416465232,-0.41066466731619,0.5367353373703889,-0.4076909990751194,0.9057208714548874,0.43724564217218354,0.36919802003241786,normal road
872329746512442,-0.7357491683671229,0.35041005577400863,-0.9137030043544487,0.0866218913950414,0.2447961112273105,-0.00361478280858607,47.252352003063336,0.24254433313463264,0.2884138229175741,0.2557929216708199,-0.7080156331934937,0.06619616821164076,-0.07540022872965135,-0.5660986318356998,-0.888134648766223,0.16929626064212777,normal road
872329515478903,9.46461952913165,7.584773244423079,7.5382628866839,9.853510456774517,5.7791736981882496,5.494741606754284,44.77698221289346,0.8523983203463894,0.25689432852463057,0.3809880301367392,0.8256466014816257,0.8593551849910843,0.43660098271438086,0.9680866112208484,0.0010014475247506205,-0.40938228201852334,pothole
872329140259371,0.9823471973107731,0.43461877781159997,0.9660598999269869,0.49730817988645104,0.17059925142057808,0.006426987555782859,43.92159344705495,-0.630498963561857,-0.8655260182995932,0.6067180254948044,0.3694426457639173,-0.9887775079986927,-0.13205175642265465,0.9802029373007526,0.6288434760936668,0.010157053962676521,normal road
872326797657103,0.9659354998656609,-0.8588350248008578,0.9720483514349594,-0.3011314274932969,-0.018153498623927344,-0.35615937290489696,45.06852483609989,0.10595169302055285,-0.08029624160204629,0.983939376562923,-0.7161318943604811,0.475238993445108,-0.7831397464100833,0.5699231481891944,0.8547559164078702,-0.10546739740125433,normal road
872329294924258,-0.24495927233851567,0.28340947925139814,0.7507120116685049,-0.22476361021707336,0.4220575067676048,-0.31578732274606236,49.30316832684305,0.5384691299104334,0.22552948244457527,0.11689407458022893,0.2730435191562992,-0.33196173499837167,-0.10756217056033224,0.7704951441023122,0.1485738966028194,-0.4191429065818475,normal road
872325546636310,0.18034044174180397,-0.09230311302255512,-0.06734225736808974,0.20886230323821375,0.2607895798611476,-0.34613091590266853,46.31539250472522,-0.1549485095659966,-0.21303370407706335,-0.20946260961148755,-0.6337214213292173,0.2457086790189631,0.6450332619422381,-0.7474073924712556,-0.7721762465879984,-0.191974211314051,normal road
872327652962069,0.18355269487351222,0.8271504476530618,0.006235521507591768,0.27156706844216405,-0.16198225448790904,-0.4629191277091059,47.77765541552997,-0.7514978231845688,0.5536069613497459,-0.5321753588627978,-0.9032643200857653,0.5013140560579417,0.38185966304070673,-0.4665630313308373,0.9640144674046958,0.4810769252009204,normal road
872328692343054,-0.7572081048419403,0.6408615138956535,0.26076908127154885,0.2693087775371007,0.34023870234329434,0.4637057830918757,40.46175085574317,0.42699310011837177,0.6606268121644299,0.640064790647012,0.46600092626472467,0.8279722159096792,-0.6730770334571081,-0.6167414165439158,0.23713920059943816,0.9831101314064232,normal road
872327553824041,-0.5624077885062793,-0.7326499741399422,-0.30032796465820377,-0.29504697908999744,-0.43943621984678727,-0.20843991295259778,47.04211878185173,0.0788875576992698,0.8200787870071302,-0.7698648772033652,-0.006780005559141822,-0.5476561798322421,-0.8694728462158607,-0.5960277315151155,0.7677255026554208,-0.8772066358980515,normal road
872326809980392,0.9943973297196693,-0.1631335595242731,-0.9904463484846457,0.315634639430459,0.0296791238844879,0.0028096336124753263,40.015551370279354,0.5890405658946227,-0.3107136221223379,-0.37174209330778085,-0.02977745106320895,0.9074247167018743,-0.6095465897974857,0.4013108094999709,-0.17312331326181862,-0.46213373337864705,normal road
872325044776176,-0.5966234691398842,-0.25084915924349627,0.15306515179218927,0.12209591708062151,0.1708508409747993,0.24836376346391287,47.80485754313784,0.34887039782620866,0.9654036791955836,0.1314616248880831,-0.5610862634662024,0.9837048362541347,0.8737363584177082,-0.84551648276457,-0.9504530264830353,-0.3205087948626475,normal road
872325397168313,-0.3220320263556302,-0.5909489481952632,-0.019382708870746113,-0.07146836212378127,-0.3058822860884275,0.4937576099224016,45.865285607081795,-0.8163815856233014,0.6246956876638481,-0.9665508938811254,-0.7794364203537798,0.7811566439727808,-0.8181945158281732,-0.0689811941904499,-0.24165787615164547,-0.2767854023359211,normal road
872325643078948,0.06239107406190447,0.5603343594807106,-0.5393816373060165,0.3942259426562331,-0.10348953565203545,0.08108936057636862,45.410563067454845,-0.3812288022970203,0.20415009239110593,-0.5222882478215252,-0.8486641439848517,-0.6033859929173733,-0.44737567369215925,0.5336240416094826,-0.4743851584852308,-0.676876976868116,normal road
872328966429504,-0.09197881321882728,0.04521551064929974,0.014063403809062569,-0.3040323670987387,-0.19233855875221972,0.37541845506518057,41.73016800913721,0.42403454860646206,0.1214722335826024,-0.6916548403037455,-0.09904208391552038,0.3583818225026141,-0.7382688303860323,-0.15492592837149588,-0.9539077422348241,0.06093698609706166,normal road
872329738061084,-0.7054339216681889,-0.9506244427269952,0.7486907841915384,-0.3392890800702313,-0.29815958760569683,-0.033010568890169956,48.64583756348938,0.8198935855713623,-0.5074367361676555,0.6294870112549276,0.27367179696380894,0.32428230066142927,-0.15646235815684295,-0.6772273737805272,0.029481289290176127,0.7225502830434838,normal road
872329293742220,-0.6602713363827222,0.7792435818004668,0.7792406484841254,-0.3651027935268234,-0.02173922202919798,0.13647302310868759,45.77985636871769,0.27576998981128,-0.7617218502002914,0.39581311949387077,0.34371586474827165,0.17998575932054472,0.6948596055720127,-0.10131303416196591,0.297976089223984,0.4072684130274651,normal road
872328409028501,9.388700678038486,7.857721498173985,7.975542682981332,8.428204219286675,8.82604335822519,6.312335445299434,43.00359353693945,0.6972595382241951,0.6400437068899549,0.11553061798935427,0.13305894964960507,0.6203311803215348,-0.06104466372307904,0.9593168997391359,-0.986914398929821,0.6416563737704126,pothole
872329611967177,0.6320987174707096,0.08292735106971239,-0.6266269790653425,-0.27599511305387214,-0.2085430239836774,0.16575040041356826,48.34892828227618,0.3433141898854837,-0.5769024147742656,-0.014942698826868162,-0.8591378533285341,0.8119987743322998,-0.868946096506612,0.33788164350493544,-0.30226799870214216,0.44362478448873355,normal road
872326032343202,-0.14499308822321022,-0.6394810826558666,-0.7286780173351848,0.2135420248832286,0.05361855601217402,0.15561803876043945,45.799189737285296,0.9539121471816494,0.45926511037415674,-0.5569050164415055,-0.5638094298725571,-0.4413515672437298,0.041074026844977185,-0.052004941243056546,0.9131680717303565,-0.30756160815192546,normal road
872328533972824,0.47749073824750643,0.2629765163245228,-0.11948731632348708,-0.10991041825808412,0.19859749493242074,0.17881973241242066,49.71196124582752,0.5094381510384607,-0.5392313757230898,0.4832979192312019,0.17220154944602162,-0.20466407759701677,0.06619440082301575,-0.9165866185390263,0.7176913774385587,0.17090492450725403,normal road
872328605996155,0.3643829843170854,0.6727302663675114,0.42574393244394804,0.2868491891501017,0.38119128200539054,-0.46245755272609956,45.76737511714049,-0.9093934066980511,-0.06558413946300568,-0.055833587204012325,-0.6476205877014467,-0.6334656050002272,-0.0003272503798621429,-0.9783150772952911,-0.3256070932209625,0.43366298824697425,normal road
872328302700001,-0.6147647539514454,0.17467487135500548,0.4244898029551265,-0.4608635286312379,-0.055293717986243496,-0.00800661059215746,44.53639892580825,-0.23163224495928958,0.5511622977691661,0.6660323766791185,-0.5384608527767552,0.6255699947814966,-0.9816007976643684,-0.6089043223901145,0.6718954757863065,0.5883388938363767,normal road
872325988139260,-0.12044306918400438,-0.47140673156032187,-0.689698037235452,-0.2082543417260596,0.11116829227489022,-0.23579745700173504,47.29018751991173,-0.2320073798530995,0.1325561531648347,0.3835947718925219,0.42963721749963035,0.28347452005622875,-0.467165838319596,0.7279390823187115,0.3497253726921248,0.49543271206509254,normal road
872328293576780,0.973875883191827,0.9238103055129359,0.6481537737303638,-0.04427126704949047,-0.4651013091456998,-0.3182794346434761,43.795578747494545,-0.7469347529094057,0.9427313245471167,-0.44975871142817136,0.9647747408237122,-0.5567057081356364,-0.22467136769419582,0.5571943714919307,0.24193958704050966,0.3988851093753314,normal road
872326165488090,0.5101651330154378,0.13284978994771302,0.3221608942085148,-0.027804491288863753,-0.11462539171400243,-0.417500876649874,49.973392945256016,-0.9707892502498672,-0.2469669433779642,-0.7116650693223976,-0.9418047558706986,-0.14353720929328673,0.38174221780843154,0.1378223356488053,0.8963552270900492,0.3211428539607346,normal road
872326644108380,-0.06271862508409476,-0.7820215967987001,-0.1918476167172356,-0.43610206253776906,0.4686821572406433,0.4305244142209189,46.85729117881993,0.5705338031960123,0.5449952848952615,0.35590368295073627,0.9391614565359931,0.3600039008689835,-0.6418815806342979,0.444804968184624,-0.21256426178717436,0.6645883511085782,normal road
872328277422203,0.39876985560398115,0.7320113589282518,0.037839532435810286,-0.24206583598012832,0.2205456781478622,0.1959555377182537,46.395194611425225,-0.9058480326957441,-0.9794499008411754,-0.5747850177661795,0.5789610078136527,-0.038029132052114,0.8636071387635103,0.5478756291368647,0.14073875424283866,-0.03811236935788309,normal road
872329914896808,-0.6092999234194338,-0.23049543586302512,0.19459289567105742,0.047201248767288706,-0.20919788900553826,0.06654431122202997,47.47597577026325,-0.07034897921197758,-0.38084521361645374,0.9253267156031841,-0.27789498727644135,0.3457827097829058,0.32540696226299737,-0.8676690068736936,0.053843614524002215,0.23516415356759612,normal road
872325193708076,9.382777355442547,9.605670668248838,7.990984352523491,6.325421684012941,8.841177411961123,8.110241522245763,42.75131023713984,0.43608075919041234,0.9358357141300666,0.437053732820055,0.6370191967220404,-0.14082393793974823,0.2079612493312153,-0.959627370576279,0.2502109160663013,0.4187197984989204,pothole
872325821882404,0.775103174999666,0.23287937144162485,0.7944152998193774,-0.4284960741066901,0.3737672566955379,0.08832673422276549,42.48777132053959,0.261823864281715,-0.6475253367474336,-0.4859829895271408,0.32914265141744625,-0.4129138802242336,0.19950063879474178,0.7260173155879952,0.9400488253875472,0.5084833862365894,normal road
872328453870210,-0.09345195691919939,-0.8019211083200302,-0.1830019962243128,0.3940351526246503,0.20655887628706582,0.04182564191910132,43.10402906882079,0.7322940186228326,0.7214932201650235,0.5698406624103034,0.4131355781894479,0.35319589734527645,-0.31958235266085655,-0.06923895920617373,-0.8623351342696963,-0.0008743528875136963,normal road
872326622419720,0.17514387243799256,0.2853455191234995,0.47724522144543746,-0.049378179141380985,-0.1486050297870687,0.47292011149116586,41.938373546974695,0.7589369467828715,-0.3611967131121552,0.8407136050849084,-0.18941948960074884,-0.23910420318657533,0.4313264854873995,0.9949780738433578,0.8458103057054063,-0.17163134929414836,normal road
872326354373741,-0.45129440229469475,0.44284661277676074,0.6378605252846381,0.37529610612254816,-0.15212941109331668,-0.43019164344380534,47.52312241472275,0.4690027047563945,-0.01357669101504988,0.17936226251055198,-0.40140129608636754,-0.3013913192671849,-0.6258047468281172,-0.6387747472553138,-0.2800579410882116,0.009371511203639438,normal road
872325567435129,-0.31485003115374344,-0.1528128933425854,0.344028738691621,-0.059868101294081044,0.10529644615792655,0.33610968302086486,49.89056541349692,-0.08059848610865417,0.9731293701068062,-0.736308279945797,-0.04002812060934002,0.8553617166040197,-0.6153371807281043,0.5390178278147555,0.6669710613742923,0.8289658953426464,normal road
872325776575780,-0.6759414517793687,0.2962730080297429,0.17796890698282053,0.434247594019175,-0.3219991754343716,0.42957433924940436,48.29196554465,-0.8338743881276234,-0.01188278843017021,-0.407756257114702,-0.25941598711758007,0.5566128037607179,-0.30415219682903283,-0.1212116452400076,0.19693705487450108,-0.57457174285097,normal road
872325371747079,-0.42014670506160967,0.10024450966088216,-0.4708012567405475,-0.06988720151521866,-0.43300465613104,-0.48347775273896443,40.722371619294364,-0.6681238991003275,-0.4075431024536669,0.8477118555583123,-0.015084940388815138,0.029257224224190415,0.9680741506734991,0.20333143286618305,0.3070372676399302,0.6637438776283908,normal road
872325469043480,0.46430558039312353,0.8445261697343254,0.13315128676213805,0.4067682950720308,-0.16451862827094865,0.4269306206045643,40.09360924812647,-0.44790830249789493,-0.36852988313416235,-0.4461594581381536,-0.09785587240950999,0.10156519663968355,0.6884549280524688,0.032234096080200114,0.24204150880290776,0.6207552535970693,normal road
872326191636972,0.13827771388538124,-0.7905017906402738,-0.5145697559574853,0.09510842908516903,0.05685481513832269,0.34708355494108245,43.37287127276134,0.2970091075235879,-0.9285634524247253,-0.7273722595906451,-0.9474389633271785,-0.28883009907742574,0.6956289349093936,0.6518791568880884,0.727236938247146,0.4385123638025701,normal road
872326992900065,-0.7849867952291107,0.014417497480495589,-0.4186366483710866,0.47531038940349635,0.06412553089981554,-0.49682819524307364,45.580505635402844,-0.6368982951586248,0.4949015996512607,0.1577801252253055,0.5586399178669639,-0.2902943950976782,-0.6971564347041117,-0.11808058069768546,-0.15563687996181375,-0.7939588515101954,normal road
872327157627098,0.48222334773372766,-0.22746201700412416,0.939809892913444,-0.21969042603794398,0.020464695575103664,-0.14249670080209675,46.81226578426413,0.655995309021189,-0.9672186117099129,-0.17756321234624628,-0.9342525192070121,0.2573502216918133,0.7533519597204097,0.47288131527929167,0.30862640711233036,0.3015339574250484,normal road
872327113477193,-0.47317018962590685,-0.7104253190501251,0.36136810080506065,0.21155587114617247,-0.30494405412252035,-0.13725195930156742,47.508062128917565,0.5981476039998117,0.7067891127794055,-0.24475031115649304,-0.3019041519058385,-0.17066556003159827,-0.2584256942292009,-0.41193334808944226,-0.19468628850043057,0.5029910097629231,normal road
872328210521842,0.9904842248669041,-0.8743573296413658,-0.1568354883106977,0.4453367049632615,-0.49644081981705945,0.13801420459347724,48.42531853999144,0.7076863058465259,-0.012504090002135593,0.6158820137634777,0.8251581437674389,0.4233504859940269,0.15788606370039493,-0.6993514734839203,-0.1139425337767388,-0.11851617301352713,normal road
872325659529367,0.6608829148211781,-0.06252394889357249,0.8255164189048401,-0.12848696314131625,-0.19731243088699058,0.1732498433865135,45.36701348239076,0.405192838700255,0.9292343671584271,0.07171208747588964,-0.6876465532906688,-0.13485287716499172,0.7696363773411001,-0.02017193414249907,0.5590804573429409,0.4227269082889318,normal road
872329322030991,-0.14186099850254785,0.8857799042028587,-0.9449954324717271,0.3999517402102274,0.1166393399567055,0.2556473090581607,42.03807865936064,0.006671062380619874,0.22103163577779505,-0.1531072073041,-0.14449203616007522,-0.9385239565899197,-0.5722141576721331,-0.5298042868123936,-0.22262553452632883,0.20041518921430312,normal road
872325990846941,0.15390971527587527,0.4825321900313939,0.5088115398252113,-0.49815827398671464,-0.4681921378665319,0.2375038551508687,47.069284752718254,0.6903179645908264,0.013480883909479546,0.3047873097679066,-0.3877534046784692,-0.04683729761872968,-0.8489749336494654,0.4893817843670958,0.5272516801109854,0.7569093167502452,normal road
872327030377359,0.3288810901442927,0.634031332280379,0.44483339366602515,0.11278965606214653,0.30060468297343124,-0.4317274121077974,49.99784923927355,0.8026165597522987,-0.8506167652413366,-0.32632487954522715,0.5435922945000504,-0.6204567084992507,0.9836236144086903,-0.653043655676993,0.7487646753875938,0.09771776579312452,normal road
872327325654986,0.5716335749603476,-0.016378618628191788,-0.6861622662417401,-0.285918287490626,-0.3160751176709897,-0.14163741610530378,47.151220115360665,-0.7614800422910983,0.6561020429630313,-0.1650870301864975,0.3459877283026098,-0.28751220524504295,-0.4984711481237738,0.8860267883990325,0.15311477438540333,-0.04280940911384579,normal road
872327402720117,0.41228162810081304,0.5276660851851356,0.8903078247834413,0.4030123697395789,-0.48582888591313256,0.35166128940607755,45.00730963627754,0.5004101099571758,0.3388197235628514,-0.3128258822430605,0.0037031278704957593,-0.5394719421776439,0.8701464472936324,0.2812538154111086,0.8320468915876182,-0.30756290562263944,normal road
872327860878477,-0.9111942013727414,-0.48964099195535815,-0.3095327599207529,-0.1816579877702218,0.26632900650452795,-0.4769966110975101,47.64260336786469,0.32828228279643024,0.1401783469854483,0.45798199337721335,0.3082933550321585,0.6334396315904336,0.5777817705143264,-0.0972350630438934,0.5347343131505617,-0.27612868333019813,normal road
872329228265368,0.10025576231227529,-0.7451716793493912,0.962955673952308,-0.4409506439624231,-0.49809930497163624,0.2768586736067329,49.5251446385394,-0.8079994690317909,-0.5922686315543486,0.2134905335268007,-0.3609638106181523,0.9894603079416937,0.21211300996657312,0.9053297796558819,-0.6704939952841584,0.4240690910703393,normal road
872328394785441,-0.3118392233453984,0.9918706480230823,0.9275666406397174,-0.03676999809575443,0.1044375420924637,0.2620148400470014,45.72153370008576,0.832451807131596,-0.03482322172137753,-0.39027189192742995,0.6111912613234991,-0.4236662145937864,-0.8744975558505286,0.3889280214741315,0.022903670791459163,0.8377869373602036,normal road
872325710402038,-0.8792240787602779,0.503696415637714,-0.5321054242095822,-0.00784863020283999,-0.4928644388928545,-0.11993715499371771,40.78504957382103,-0.6951307302387206,0.764553032575584,0.37981790511661706,0.2925376754244797,-0.588344291975295,0.5880310310377326,0.8967662335843554,-0.02946431401451033,0.5008090950265034,normal road
872326400684527,8.245473527330226,5.205031982868793,7.291889586096856,7.615516374247198,5.899331985005941,6.230705445204155,41.3853631000162,0.2789169751738656,-0.2099965337135994,0.775135235501734,-0.1489055482156636,0.36252404047470166,-0.7898323426439768,-0.9049891988411474,-0.898605839285165,0.8982346696420391,pothole
872325396235582,0.2629246173593509,0.9393443351740798,0.04492322665198034,-0.3209977691341682,-0.4676477039410215,-0.4590413109510806,43.02656576609641,0.43037379896237016,0.9986978692398434,0.4554417950260883,-0.5882655947013604,0.6540900624105064,-0.29136542809900123,0.7724301155994597,0.519942908651327,0.16795596549850345,normal road
872329622217260,0.9387317696641551,-0.6546623600945227,-0.28905411945729576,-0.3081861115944977,0.21890435414841403,0.43310642131508625,44.00891348589496,-0.1133864385723291,-0.9205506007808166,0.22119893140752156,-0.5928658197871981,-0.5520330514852712,-0.5774300224824382,-0.19362022705674597,0.9665083893194912,-0.18570924234325004,normal road
872327609385535,0.523643221664349,0.5116806098861466,0.40088724648549445,0.44332420689391816,-0.19793565562021054,-0.33028349066313345,43.102865381208325,-0.7488185558915559,0.36046244193409516,-0.9315725033070756,0.6362924892790891,0.007843421170150355,-0.04130039504380423,-0.97392767147165,0.838207253218747,-0.2746809286935634,normal road
872329762295555,-0.9385515299484377,0.3036385629858227,0.4932581014753743,-0.2927907004677044,0.04206156467725797,-0.3926256557496508,41.15483104168172,-0.49354083346825073,-0.05983501834295413,0.6928500386116254,-0.007229382895032055,-0.4100079779383463,-0.02085957538015748,-0.27780458171307454,0.6363837203356317,-0.5791867442585814,normal road
872329701020050,0.5818189472792783,-0.7256180385060467,-0.7205268063335835,-0.2891273479227,0.3435119893154265,-0.21665000448258476,44.52087144744979,-0.25388739400951343,0.4189056276359988,0.35707493387206024,0.11970819291931001,0.9983693346377653,0.1403038860017245,-0.2788443840035839,0.8857464297749962,0.9342498286085412,normal road
872329244506048,-0.7792116194503116,0.08462590064596176,0.9665091093597205,-0.3943775962413719,0.4265019777362631,0.025852115909658635,41.6647051832168,0.12555171708553559,0.42548613379276135,0.3206705776754679,-0.17005210213436195,0.8485138408051263,-0.18238817960472264,-0.6750566212365452,-0.7346354439192799,-0.22733952779133237,normal road
872328014101610,0.5954063436655648,0.26609888860163555,-0.04624031419926822,0.24299866064684883,0.14412648863130495,0.48933617023403086,43.13608340162098,-0.48336282318634227,-0.3338546373614306,-0.8728454858590264,0.5519929365188354,0.953234836136039,-0.7898023127780096,0.35466909664132884,-0.0018828281410314673,0.8289103755668976,normal road
872328768167612,-0.537270214010674,0.25670018814927986,-0.8119139134075861,-0.13240677168633674,-0.40199572878834877,-0.20481222595183757,46.05102339438074,0.8329083857465136,0.49909827460068557,0.8909710239285928,0.4732093838476421,-0.2295140905508093,-0.12571120906115718,-0.899191973019156,0.13235373700453157,0.2446433781434043,normal road
872329165485080,0.36695471023521176,0.3423331794821327,-0.5401508529206707,-0.30128851096882914,0.2806459709981658,0.07397771712134127,46.50200900141008,0.9214775336931156,-0.5221982789614119,0.29489476294033645,-0.7189965721629812,0.8907273546422767,-0.3850589137763156,0.22572290678464224,0.8880877113414718,0.06338035497635763,normal road
872327526813156,0.7076583501855074,0.8160678041823122,0.5618775088371613,-0.493421855404071,-0.33367214242557575,0.25255458353184324,40.317449068905496,0.24714749928114355,-0.12655512898255616,0.7808707360547658,0.8010051513861998,-0.9177174728205426,-0.9271943348254683,0.36402403336994227,0.20895030270258563,-0.7608847422736253,normal road
872328981881692,-0.3162908834815257,0.05946571099137743,-0.3828290997235335,-0.06027451432850095,-0.0785636266801053,0.24332595720658545,45.39868252974132,-0.4375179868744006,0.5738302032213767,-0.4742121259448897,-0.9291736736305845,-0.7437428415803586,0.7724467656591383,0.4085436018102375,-0.5989639477054844,0.11484745936399587,normal road
872325530313415,0.08543021681415164,0.5802470903435919,-0.7932799197181439,0.17692960350812859,0.1207274594338491,-0.42025160473647627,47.34292172618361,0.226703463460727,0.7501273951497247,0.5700474413214232,0.6742650654278795,0.22841870857238944,0.297027734837364,-0.31531491096039077,-0.9337869803462227,0.9843927190975215,normal road
872328995447164,0.6477463694225445,0.07949411498692616,0.5078601672539675,0.4782357511470159,-0.0360512155502688,0.04729256513776148,40.17120172635161,0.8638176773844704,0.018031435407257268,-0.534366818912188,-0.40541604657344044,-0.38628509883775397,0.8266255992051088,0.46325787282654507,-0.17435490919132435,-0.20651042876069403,normal road
872328264883593,-0.9050660427625488,0.778889788303023,-0.13683773930758503,0.22510775621185242,0.49836479441664094,0.06720642899942719,40.18639747733523,0.6595505468610476,0.7005976217884762,0.5649887223147481,-0.19422790188269157,-0.21715588266046404,-0.6447174857297444,-0.35915704418014616,0.09304420350062292,-0.1602581400761951,normal road
872325442657820,0.35463159614283324,0.9237909696979252,0.4596052499928811,-0.4407663830928026,0.028849566362817658,0.3362460430924138,45.929803191900525,0.15825611668141248,0.8591103479262745,0.7146031913669997,0.8991863396055526,-0.7499149540207235,0.8789924078375373,-0.8310812072641887,-0.8418157960587613,0.090467517247798,normal road
872328218970499,-0.4898750252563213,-0.09843138955814501,0.2144908519313926,-0.2156887260251683,0.08359015154067062,0.47692486702590076,42.15453001961988,0.7311625827564103,0.31579076204753864,0.9294684748187556,-0.2981873636257455,0.17041253555422342,0.08155616467178572,-0.08573145968589224,0.9549095544122439,-0.6289286632425068,normal road
872329143653518,-0.3635970823163712,-0.9402092678843967,-0.7261835932156755,0.2569423594414164,0.4369790115350991,0.44002550367411286,46.38509989825454,-0.633718122789706,0.7985814071262822,-0.09492879772137552,-0.21021038324488583,-0.4550220800670379,-0.7429582609254266,-0.3701509078614924,0.27846917307069186,-0.10329089760565591,normal road
872329806509715,-0.6307834150871008,-0.7959032725243163,-0.28119703099920557,-0.1722039159906058,-0.032102439704549735,-0.25903836886075726,42.07270424009708,-0.44513370339555713,-0.7581010328941076,0.5331516586418026,-0.08963532191293133,0.7144810427432013,0.7074691981525734,0.6086849278922448,-0.1973478729077489,0.34024783295490435,normal road
872327726258694,0.7756670608994405,0.5994640822554689,0.6145871562071199,-0.23788513095956032,0.1400642533597133,0.019269265730000207,45.74345869976191,0.43616807963849547,-0.14855784416668416,-0.7696955755218831,-0.7287011604186837,-0.8422988283091202,-0.04963611805731816,-0.970614537057845,-0.5839129068199638,0.7871446132433109,normal road
872325129076117,-0.9017894783139662,-0.8010972525574667,0.31326152891066106,0.44884005762160506,0.12078448865226499,-0.3630413058536106,49.87188641980668,-0.5035728772781058,0.9458953386629152,0.05531467922567446,-0.6836882508239281,0.3750319541132807,-0.21682508500058773,-0.06455483627329528,0.5148875415461645,-0.7487802271876587,normal road
872327389068694,-0.3818548763681566,-0.21174776797665928,0.4629320484179713,0.1373856541245181,0.14964255541759386,0.3443860085398843,42.19951757573068,0.33727205842561836,-0.6302470922522814,-0.22171165600662146,-0.06938195621928878,-0.7544041423297794,0.8656882046695931,0.38835887993842566,-0.6417274136542932,-0.8336764127818859,normal road
872328150844994,-0.5666622250500821,0.4705772890676938,0.44789033917416465,-0.1290115256707104,-0.07436589485667722,0.14140772595008233,48.135532848399606,-0.7700518796289744,-0.12525343254839583,-0.23370852559116173,-0.3062846788733573,-0.542157720495734,-0.09641225702865408,-0.4300103374219735,0.13164906987874736,0.6145600662112898,normal road
872328138827245,-0.9575594093271176,-0.09190351487681925,-0.13547515858191206,0.03203283008419888,-0.1272172856730298,0.37457710577005565,47.89633121866288,0.3916588640505625,0.0016968054094443907,0.6193738768604877,-0.7822569563812527,0.8117385140530655,-0.40616228311282665,0.7126832485931336,-0.7220420513724075,-0.9958673153801965,normal road
872328787247514,0.5940414874139273,-0.5757216545285209,0.4538707981189134,-0.4347360269454328,0.14386355487072666,0.08707137048745217,48.47948611833331,-0.5483907141609217,0.4611227872761454,0.36425630081110616,-0.9685275597947203,0.3887172288216507,-0.6110776198037036,0.5671747874353283,-0.6673787788466576,-0.6330791847679758,normal road
872325567942316,-0.6604168760699292,0.9838291485322099,0.022853739355874536,0.019215069168638133,0.45898404567718887,-0.02087059576449446,49.23864478390547,-0.5906311300309626,-0.2899709230987295,-0.9151504215261512,-0.7965758882372822,0.49922804367436546,0.18947970596141905,-0.7639020191798345,-0.3013194310942968,0.43440753385551933,normal road
872329893736741,-0.35999783969032073,0.26249371351082385,0.59967288345675,-0.48101896268900546,0.052550308205242424,-0.3015240989403668,46.92331719901724,0.3341193978556227,0.3513307000545385,-0.735922179467247,0.2192574347805929,0.5909498206265504,-0.9286312474731857,0.9550367054715578,-0.3317994048325823,0.8191207704170516,normal road
872328416448672,-0.8714975183480167,-0.17984878854072361,-0.9194914813146611,-0.09677252286417592,0.06341677607047136,0.12366576836962251,40.462160832847886,0.625779557399218,0.2775379388112449,-0.6664866406891812,-0.7826153257657735,0.8409541549830439,0.2523273605020371,0.1466295958626216,0.046740409146895256,0.9954590213156422,normal road
872327124907393,0.7357962838991403,-0.8546917584858549,0.17051498719748936,0.38827769350226715,-0.3596192208724509,-0.27957544626960285,47.87030464962475,0.9546654728323296,0.6777964617082184,0.5768999569332935,-0.6255593994458619,-0.9023420799438884,0.1520876986411368,0.48802655790811644,0.9188375252884391,0.8107080305910799,normal road
872328282113011,0.7933222480532738,0.14393814378798742,-0.4495220313382089,-0.31536579283096,-0.014196376591951831,0.005309209149682692,41.51846122128897,0.16828159325378933,-0.49463461318467394,-0.35317014363096755,0.39130877678719367,0.13698991620044954,-0.8337168085379323,-0.28706437555263364,-0.48423793965384654,-0.24432590053313819,normal road
872329146443767,-0.9274528919750802,0.0760535261344295,0.17874583566195512,0.4935235092060277,-0.4579814659825089,-0.3778663038681237,42.117170309819485,-0.9034877597305195,-0.479051543767822,0.8806714794365729,-0.18392882118384035,-0.6832789529879348,0.9670281777778937,-0.777690198863122,-0.5606706630774072,0.29165776629475326,normal road
872328244730659,-0.4387141108453121,0.7500150914307289,-0.9425688537498924,-0.3446183895674154,-0.0671877762998423,-0.24063790874322777,46.10986281320119,0.5299087661886783,0.9398620120496637,0.445153282727651,0.5118110359443271,0.9520470577605085,-0.6986721114411334,-0.24270424805408175,0.6311153444958897,0.6572526524581588,normal road
872327126436447,-0.7935313331113363,0.2568715904003034,-0.7678370236344194,-0.2353583655920749,-0.2471598896308148,-0.4204769460926695,42.876357268623956,-0.05003072989128854,-0.2320685402960172,0.806873134323292,-0.5017708222016823,0.4047261401553792,-0.974007155898746,-0.8689501358474336,0.9702442704191188,-0.1491517129765514,normal road
872329686531427,-0.6825839525045407,0.6505633185832171,0.27282284050970196,0.2529714799102565,-0.2230864430804469,0.3113016228217963,44.3151105289496,0.5188749487748521,-0.454136919533803,-0.5069252497891477,0.9068712724143719,0.1143259554794378,-0.8754917920517795,0.9020340758539489,0.9174450036197381,0.23457277076103966,normal road
872329030135016,0.6684790353886692,0.05172330328134289,-0.016860598719871334,-0.4718337764729873,-0.31881933045947586,0.20190570920415274,46.98867268029751,-0.7164095968325648,0.22247758626517067,0.2462056954466172,-0.38026518179932745,0.6503128965552016,0.7333308567734296,0.9513268402110195,-0.9920213873281425,-0.6447158075297259,normal road
872329080505810,-0.6166013402242394,0.9759603636916321,-0.08867501562038616,0.3712522722030378,-0.15089432081580423,0.3690216346452323,42.43442081910464,-0.014173203216163666,-0.17980691517551795,0.3324326539955613,-0.8011143577166047,-0.06484733944893528,-0.809557357678677,0.2518114841633041,-0.5654685050082806,-0.6998727477188398,normal road
872325637730161,6.993258219453779,10.681522667477754,6.8971164118750705,8.626926441873515,6.620559992550194,6.2483242847119875,48.95536843792074,0.10534430758074831,-0.9196191362828667,0.8157847111929972,-0.09091663595394639,-0.336345453462507,0.05081238459859572,0.6047914997693791,-0.800169369780974,0.7074356396726444,pothole
872327727225281,0.38346409218838695,0.8778271000456488,0.5969737947266958,0.0017780935580901103,-0.10405477161803445,0.12245146979209565,40.23240211111777,-0.3778272588646494,-0.663365593883021,-0.5652960134015679,0.4716759333605214,-0.015383908693984871,-0.4863964065243156,-0.5247694596507544,0.7942418509926561,-0.9934227950384535,normal road
872325190040922,-0.6667905056006487,0.9432127844464298,-0.38607103113493535,-0.1501194073980956,0.49426158555293087,0.0753649991826223,45.10924779534555,0.8996003957317893,0.6141765276946201,0.9760433159581683,0.12487764343612717,0.44941482045799597,-0.2613389782816362,0.4049983623052513,-0.435657732794267,-0.2596399068316708,normal road
872327761022729,-0.3447982663378888,-0.4384764242124517,-0.8058558695938969,0.07577120343444332,-0.4800518052915115,0.2941619725643617,43.07003384480997,0.6354938496914135,-0.8925134416647329,-0.8980569841951762,-0.3078712681626463,0.21105972040047627,-0.04192824455366373,0.6027722241347429,0.8625366171200888,-0.11618120165829438,normal road
872326281752678,-0.5632732688424553,-0.005168794287234935,-0.9096220685158045,-0.17268461092223897,-0.056482584878701614,-0.12526198441458036,41.7069344715075,0.4216996369760815,-0.21587751051421988,-0.6692528228851513,0.10776872947250848,0.8380270605451576,-0.5481686216988879,-0.0639054357485569,0.5830579752767266,0.6742523402885865,normal road
872326368323471,0.6769912688174877,0.7011242522282006,0.4532721841220537,0.28458647798870873,-0.34721639531537873,0.2519927369266788,44.32943811678666,-0.07143764848208711,-0.3800268912138638,-0.4871526126597312,-0.4581940745048183,-0.47682782300076787,-0.7164314561493992,0.06990581771161564,0.5334048770317801,-0.995425507851539,normal road
872327327178272,0.7279689024396756,-0.6806892726370151,0.5587674257698536,-0.004716293708195929,0.12341528218083575,-0.29321664992042684,48.325949518346576,0.6464128462393679,-0.44729079182205744,-0.4956649613808075,-0.695024022971718,0.057495358891789694,0.034930269749609666,0.37870026043073723,0.683007603410847,0.5056743568341826,normal road
872327486626989,0.8639054554857677,0.9298232191273661,-0.47049000840012933,0.43683113568053944,-0.0018807782584420174,-0.2667852372922793,44.44136191751398,0.7317784964589713,-0.11717913168882554,-0.46844782398924734,0.5954936633210479,0.20580837134012997,0.731205179358565,-0.20302136179691344,-0.7895671821623522,0.6413233230504687,normal road
872327388203806,6.642037969218591,8.936782205399314,8.75290929000412,6.589774772225226,9.049005485290454,5.5316862695943545,44.6303396413036,-0.41789791913793617,0.8759749179204237,0.6161124860520406,0.11574633050340877,0.7402489546503059,-0.9799135568787165,-0.13681223468243786,-0.5350402729948485,-0.6875394867085929,pothole
872328745092880,9.335520097172548,5.48233618631406,8.29491467642718,7.390455924657554,5.48911226233308,8.045037215606955,40.2400436452771,-0.7633317507621096,-0.5716296799197789,0.34084122283279106,-0.8741810403203785,0.3793413113187081,-0.9074266908946171,-0.08243900880152677,0.8823264260532302,0.9320113735476891,pothole
872325123994452,0.023749299272762592,-0.9943170526611431,-0.973622431607343,0.4632028599756369,-0.3747399412950072,0.3709161826375602,47.75739996076661,0.09461145434891494,-0.06457277993651322,-0.3720715283556346,0.8777072386125788,0.8188816478589094,0.9135607195794182,0.8460342358123578,-0.34932525634418976,-0.34536536896523606,normal road
872326026214333,-0.2904985645652871,-0.49996006710225904,0.7332951871204387,-0.4590928460154168,-0.30645164074065423,-0.004050205184185196,42.80341163957216,0.444021512138691,0.6345128700647138,0.8292665200624902,-0.729315522625626,0.956036985921396,0.623510505649669,-0.26246560552456377,0.6995169994448864,-0.0191837064047069,normal road
872327574885995,0.1536119039133199,-0.7229527324337104,-0.9563931139997637,-0.1570128981957949,0.2690723720625059,0.37303724122496484,42.90914497929628,0.4437933467537971,-0.863008172325461,0.560831619478485,0.2319529364711228,-0.2415486704153682,0.32256266279750423,0.3965092606108105,-0.8321627659443736,-0.7437769625837076,normal road
872329672345973,-0.4282515975811596,-0.8694490091587137,0.20323660659058085,0.4474373005536406,0.18394457419082133,-0.28212477657219914,48.17347917968581,-0.8208363971569055,0.5179150855908967,-0.5855735976255205,-0.08951470601447231,0.4736467554395305,0.45799546027779336,0.303929450477485,-0.9460095430245345,0.0314546802548159,normal road
